label,rep,idx,t_ms,ax,ay,az,gx,gy,gz
1,1,0,0,-0.099119,0.101226,-0.934372,-188.174026,47.143593,-15.913047
1,1,1,21,-0.028806,0.518707,-1.020798,-82.674026,-12.356406,-36.475548
1,1,2,41,-0.020994,1.096832,-0.900192,-55.736523,-7.918906,50.711952
1,1,3,61,-0.164060,1.318023,-0.913376,-24.236523,5.456094,124.711952
1,1,4,81,-0.168455,1.257964,-0.949997,33.450977,12.581094,161.149460
1,1,5,101,-0.208005,1.269195,-1.029587,60.263477,32.206093,189.899460
1,1,6,121,-0.154783,1.507476,-1.058395,37.263477,35.268593,226.961960
1,1,7,141,0.033694,1.638824,-1.034958,-3.736523,55.456093,298.149445
1,1,8,161,-0.064451,1.262359,-0.916794,-57.861523,77.518593,414.461945
1,1,9,181,-0.245603,0.412750,-0.938766,-44.111523,80.518593,510.961945
1,1,10,201,-0.326169,-0.406098,-0.802536,1.013477,68.768593,537.524475
1,1,11,221,-0.499998,-0.762055,-0.616013,-22.049023,13.831094,524.899475
1,1,12,241,-0.529294,-1.277680,-0.567673,-62.361523,-2.856406,479.211945
1,1,13,261,-0.487791,-1.616547,-0.486130,-156.736526,71.643593,307.399445
1,1,14,281,-0.205076,-2.034516,-1.156540,-167.611526,29.393593,221.524460
1,1,15,301,-0.179685,-2.122406,-1.187790,251.638474,22.581093,201.711960
1,1,16,321,-0.063962,-2.263031,-0.841110,83.200974,97.456093,167.024460
1,1,17,341,0.178225,-2.318207,-0.706833,119.450974,144.768600,83.961952
1,1,18,361,0.221194,-2.184906,-0.528122,198.200974,162.581100,1.899453
1,1,19,381,0.136721,-2.235199,-0.279099,244.263474,111.331093,-53.288048
1,1,20,401,0.070315,-2.395356,-0.103317,94.888474,-101.856407,-124.350548
1,1,21,421,0.035647,-2.171723,-0.478806,46.200977,-167.856400,-263.288055
1,1,22,441,-0.019529,-1.948090,-0.580856,95.138474,-180.793900,-383.413055
1,1,23,461,-0.194333,-1.732758,-0.796677,169.950974,-166.293900,-470.600555
1,1,24,481,-0.752439,-0.891450,-1.158981,224.638474,-178.418900,-552.288025
1,1,25,501,-0.969236,0.226714,-1.632614,171.138474,-302.231415,-473.975555
1,1,26,521,0.123049,1.655425,-2.138474,-117.611526,-194.856400,-431.038055
1,1,27,541,0.345706,1.587066,-1.426071,-221.861526,140.081100,-306.850555
1,1,28,561,0.106936,1.171539,-0.597458,-135.236526,136.331100,-182.413040
1,1,29,581,0.156252,0.961578,-0.548141,68.450974,-16.856407,-91.975548
1,1,30,601,0.128909,0.644683,-0.885544,122.075974,-127.918907,-25.350548
1,1,31,621,0.175784,0.448394,-1.196091,-16.299023,-171.606400,-54.350548
1,1,32,641,0.418948,0.514800,-1.392380,-112.799026,-108.106407,-61.663048
1,1,33,661,0.497073,0.588531,-1.097458,-140.299026,9.768594,-35.663048
1,1,34,681,0.308596,0.712066,-0.669724,-83.299026,41.581093,-14.913047
1,1,35,701,0.108889,0.475738,-0.707809,106.325974,11.081094,-21.350548
1,1,36,721,0.390627,0.305816,-0.879196,179.763474,-43.981407,-59.225548
1,1,37,741,0.254885,0.344390,-0.991501,131.763474,-69.106407,-34.663048
1,1,38,761,0.283206,0.268218,-1.075485,48.200977,-48.481407,40.836952
1,1,39,781,0.094241,-0.018403,-1.105759,31.950977,-48.668907,70.586952
1,1,40,801,-0.030759,-0.070649,-1.152145,66.513474,-17.168907,123.211952
1,1,41,821,0.528811,-0.121918,-1.159470,5.888476,-24.231407,138.274460
1,1,42,841,0.449221,-0.358735,-1.138474,-6.299024,-13.856406,59.711952
1,1,43,861,0.288577,-0.257661,-1.104782,-0.986523,14.206094,9.524453
1,1,44,881,0.275393,-0.074555,-1.132614,-45.236523,22.518593,-6.038047
1,1,45,901,0.270022,-0.040375,-1.102341,-54.549023,24.581093,9.524453
1,1,46,921,0.275393,-0.034516,-1.087204,-59.049023,18.581093,2.024453
1,1,47,941,0.244143,0.079254,-1.117966,-86.486526,36.206093,3.774453
1,1,48,961,0.277346,0.059234,-0.977829,-94.924026,68.456093,37.461952
1,1,49,981,0.441897,-0.340180,-0.811813,-90.674026,33.081093,9.586953
1,1,50,1001,0.317385,0.013336,-0.868454,-76.049026,14.018594,0.461953
1,1,51,1021,0.377932,-0.086274,-0.851364,-7.736524,11.831094,5.961953
1,1,52,1041,0.361331,-0.032075,-0.859177,27.200977,7.081094,0.399453
1,1,53,1061,0.296389,0.043609,-0.975876,36.325977,-9.231406,-5.538047
1,1,54,1081,0.411135,0.085113,-1.035446,-0.361523,-38.106407,4.086953
1,1,55,1101,0.342288,0.020660,-0.955368,-43.674023,-36.231407,16.461952
1,1,56,1121,0.395510,-0.119477,-0.863571,-71.986526,-18.043907,19.086952
1,1,57,1141,0.400393,-0.200043,-0.765427,-54.799023,-0.043906,16.274452
1,1,58,1161,0.404299,-0.093110,-0.817184,2.200977,-6.293906,2.899453
1,1,59,1181,0.447756,0.041656,-0.817673,19.200977,-18.731407,-1.163047
1,1,60,1201,0.304202,-0.077485,-0.787888,1.138477,-19.168907,-1.663047
1,1,61,1221,0.354983,-0.079438,-0.842087,2.138477,-20.168907,-1.100547
1,1,62,1241,0.401370,-0.070161,-0.821579,-17.924023,-11.106406,24.024452
1,1,63,1261,0.331545,-0.141938,-0.857712,-25.174023,-13.043906,13.711953
1,1,64,1281,0.307131,-0.162446,-0.835251,-14.861524,-7.731406,-8.600547
1,1,65,1301,0.378909,-0.080414,-0.887985,-33.986523,-4.168906,3.211953
1,1,66,1321,0.382327,-0.086762,-0.821579,-38.986523,-1.793906,22.461952
1,1,67,1341,0.353518,-0.094086,-0.824997,-21.111523,-3.793906,2.274453
1,1,68,1361,0.402346,-0.056000,-0.839157,18.638477,2.018594,-4.600547
1,1,69,1381,0.340823,-0.104828,-0.828903,30.388477,-2.106406,-10.100547
1,1,70,1401,0.362307,-0.067719,-0.825485,31.638477,-6.918906,-14.288047
1,1,71,1421,0.418459,0.038726,-0.859177,24.700977,-8.731406,-4.475547
1,1,72,1441,0.378909,0.003570,-0.880661,19.513477,-2.668906,5.024453
1,1,73,1461,0.286624,-0.179536,-0.844528,15.450976,2.768594,-2.725547
1,1,74,1481,0.385256,-0.128266,-0.806442,12.888476,-9.168906,-12.600547
1,1,75,1501,0.355959,-0.077485,-0.844040,27.638477,-17.356407,-20.350548
1,1,76,1521,0.335452,-0.002778,-0.913864,33.950977,-19.981407,-22.475548
1,1,77,1541,0.340334,0.016265,-0.958786,43.825977,-15.918906,-17.350548
1,1,78,1561,0.327151,-0.026215,-0.955368,40.263477,-12.168906,-2.975547
1,1,79,1581,0.331545,-0.078461,-0.954880,27.263477,-13.668906,8.836953
1,1,80,1601,0.351565,-0.071625,-0.968063,23.700977,-13.793906,6.336953
1,1,81,1621,0.315432,-0.064789,-1.008591,13.700976,-9.481406,1.274453
1,1,82,1641,0.358401,-0.072602,-1.026657,1.700977,-3.731406,1.836953
1,1,83,1661,0.361819,-0.026703,-1.013962,-1.736523,4.206094,5.961953
1,1,84,1681,0.364749,-0.027192,-0.989059,-10.236524,11.831094,10.149453
1,1,85,1701,0.360842,-0.074555,-0.952927,-10.361524,14.768594,8.149453
1,1,86,1721,0.362307,-0.066743,-0.927536,-10.299024,12.143594,6.336953
1,1,87,1741,0.391604,-0.063813,-0.907516,-11.549024,7.956094,6.711953
1,1,88,1761,0.375002,-0.064301,-0.911911,-1.236523,4.393594,5.274453
1,1,89,1781,0.358401,-0.045258,-0.927536,2.263477,1.768594,6.024453
1,1,90,1801,0.366213,-0.042817,-0.930954,0.888477,0.393594,8.711953
1,1,91,1821,0.374514,-0.051118,-0.933884,2.075977,-1.793906,9.836953
1,1,92,1841,0.368167,-0.076508,-0.949020,2.388477,-2.168906,10.024453
1,1,93,1861,0.368655,-0.081391,-0.966110,-1.486523,-0.856406,9.586953
1,1,94,1881,0.370608,-0.087250,-0.967087,-5.924024,1.706094,8.961953
1,1,95,1901,0.389651,-0.078950,-0.964645,-10.486524,3.956094,7.086953
1,1,96,1921,0.404788,-0.073578,-0.942673,-11.049024,6.893594,5.899453
1,1,97,1941,0.414065,-0.086274,-0.892380,-13.174024,4.581094,5.711953
1,1,98,1961,0.416506,-0.098481,-0.861130,-4.924024,-6.043906,1.899453
1,1,99,1981,0.385256,-0.069184,-0.942673,3.200977,-11.106406,0.524453
1,2,0,0,0.394045,0.060699,-0.878220,-16.549023,-16.793907,-19.600548
1,2,1,21,0.400393,0.289214,-0.803513,-84.549026,-16.231407,-9.038047
1,2,2,41,0.473635,0.689117,-0.699509,-150.049026,1.768594,5.461953
1,2,3,61,0.764651,1.425445,-0.731735,-46.486523,-32.606407,-25.975548
1,2,4,81,0.633792,1.939117,-0.980759,72.075974,-15.168906,30.399452
1,2,5,101,0.474124,1.987457,-1.136520,113.700974,4.206094,147.461960
1,2,6,121,0.223147,1.489898,-1.058395,121.200974,2.581094,217.899460
1,2,7,141,0.031741,0.765289,-1.199997,160.388474,1.143594,268.336945
1,2,8,161,-0.119626,0.397125,-1.350388,144.388474,21.956093,312.149445
1,2,9,181,-0.161619,0.090972,-1.279587,47.888477,31.268593,360.774445
1,2,10,201,-0.297849,-0.306977,-1.199020,-47.299023,57.643593,414.024445
1,2,11,221,-0.425291,-0.641450,-1.123825,-113.861526,68.206093,441.399445
1,2,12,241,-0.448728,-0.934907,-1.016403,-189.861526,73.706093,461.149445
1,2,13,261,-0.539548,-1.386567,-0.788376,-176.799026,74.643593,483.961945
1,2,14,281,-0.423337,-1.820161,-0.706345,-55.049023,69.018593,450.461945
1,2,15,301,-0.408201,-2.389496,-0.779099,17.700977,51.143593,351.899445
1,2,16,321,-0.246091,-3.373871,-0.854782,-1.799023,42.768593,169.711960
1,2,17,341,0.012698,-3.447114,-0.567673,25.888477,31.456093,-22.850548
1,2,18,361,0.172366,-2.549164,-0.670700,-21.861523,31.268593,-85.100548
1,2,19,381,0.274417,-2.124848,-0.632614,-48.361523,23.331093,-111.600548
1,2,20,401,0.225588,-2.070649,-0.615036,43.763477,-2.418906,-190.350540
1,2,21,421,0.243655,-1.848481,-0.659958,87.263474,-12.043906,-274.350555
1,2,22,441,0.281741,-1.535493,-0.617966,82.200974,-18.481407,-326.600555
1,2,23,461,0.300295,-1.227387,-0.600876,71.200974,-26.668907,-358.975555
1,2,24,481,0.230471,-0.973969,-0.641891,64.825974,-40.981407,-353.600555
1,2,25,501,0.155764,-0.755707,-0.737106,45.888477,-56.668907,-361.913055
1,2,26,521,0.133303,-0.589203,-0.859665,30.325977,-68.481407,-387.663055
1,2,27,541,-0.039548,-0.273286,-0.889938,34.700977,-77.668907,-408.163055
1,2,28,561,-0.020017,0.434722,-0.827438,5.450976,-95.606407,-386.538055
1,2,29,581,0.117678,0.784332,-0.906052,-26.049023,-98.293907,-321.413055
1,2,30,601,0.026370,1.010406,-1.158005,5.950976,-87.481407,-267.225555
1,2,31,621,-0.003904,1.332183,-1.359177,1.263477,-59.231407,-195.538040
1,2,32,641,0.110354,1.371734,-1.428513,-4.986524,-26.543907,-110.850548
1,2,33,661,0.307131,1.120757,-1.355270,-39.486523,11.268594,-4.475547
1,2,34,681,0.370120,0.719390,-1.118942,-86.799026,68.143593,-5.475547
1,2,35,701,0.331545,0.334136,-0.912399,-75.736526,64.456093,7.961953
1,2,36,721,0.392581,0.136382,-0.861130,-67.861526,37.206093,15.024453
1,2,37,741,0.471682,0.050933,-0.759079,-48.486523,29.268593,11.461953
1,2,38,761,0.500491,0.132964,-0.764938,0.888477,0.643594,8.274453
1,2,39,781,0.465823,0.284332,-0.902145,21.700977,-11.668906,47.086952
1,2,40,801,0.355959,0.003082,-0.907028,6.950976,5.518594,53.461952
1,2,41,821,0.382327,-0.174653,-0.832321,-15.424024,6.706094,46.899452
1,2,42,841,0.373049,-0.210297,-0.856247,6.388476,0.393594,22.024452
1,2,43,861,0.368655,-0.102387,-0.894333,14.325976,2.643594,8.586953
1,2,44,881,0.390627,-0.008637,-0.895798,1.200977,12.018594,12.461953
1,2,45,901,0.415042,-0.000336,-0.792282,-14.361524,22.018593,20.961952
1,2,46,921,0.309084,-0.097504,-0.717087,-30.611523,20.081093,19.211952
1,2,47,941,0.389651,-0.067719,-0.780563,-40.924023,24.331093,-6.163047
1,2,48,961,0.529299,0.029937,-0.748825,-31.236523,10.893594,10.586953
1,2,49,981,0.422366,0.038726,-0.762985,25.013477,-3.793906,8.524453
1,2,50,1001,0.399905,-0.096528,-0.795700,29.763477,-3.231406,10.711953
1,2,51,1021,0.430178,-0.138032,-0.805954,20.888477,-4.106406,8.961953
1,2,52,1041,0.422854,-0.138032,-0.842575,8.200976,-4.106406,7.836953
1,2,53,1061,0.421877,-0.118012,-0.885056,0.513477,-0.543906,2.524453
1,2,54,1081,0.413088,-0.101899,-0.919235,0.763477,4.143594,-1.663047
1,2,55,1101,0.420413,-0.076508,-0.903610,-10.299024,12.143594,-0.600547
1,2,56,1121,0.449221,-0.100922,-0.818161,-30.361523,15.393594,4.961953
1,2,57,1141,0.461428,-0.112153,-0.738083,-34.861523,12.831094,4.649453
1,2,58,1161,0.437014,-0.118500,-0.730759,-32.611523,5.768594,3.336953
1,2,59,1181,0.427249,-0.038911,-0.765427,-29.549023,2.518594,3.586953
1,2,60,1201,0.415530,-0.007172,-0.741989,-29.986523,0.518594,12.149453
1,2,61,1221,0.429202,-0.117524,-0.741501,-20.111523,-5.356406,12.836953
1,2,62,1241,0.429690,-0.111176,-0.736618,-7.486524,-7.731406,5.899453
1,2,63,1261,0.434084,-0.101411,-0.771774,-0.674023,-2.418906,2.149453
1,2,64,1281,0.437014,-0.108246,-0.762009,6.450976,0.206094,0.086953
1,2,65,1301,0.437014,-0.120942,-0.755661,5.513476,1.081094,-2.975547
1,2,66,1321,0.436526,-0.135590,-0.760056,9.450976,0.831094,-9.600547
1,2,67,1341,0.431643,-0.109223,-0.780563,18.513477,1.081094,-13.538047
1,2,68,1361,0.432131,-0.098481,-0.796188,19.200977,3.143594,-13.163047
1,2,69,1381,0.435549,-0.109223,-0.780075,16.513477,3.706094,-11.413047
1,2,70,1401,0.432131,-0.097993,-0.759079,12.575976,1.893594,-9.850547
1,2,71,1421,0.427249,-0.088715,-0.754196,6.950976,-2.356406,-8.288047
1,2,72,1441,0.419436,-0.068696,-0.778122,7.950976,-5.731406,-5.538047
1,2,73,1461,0.412600,-0.066254,-0.807419,6.575976,-4.918906,-2.850547
1,2,74,1481,0.411135,-0.071137,-0.816208,2.700977,-1.106406,-2.663047
1,2,75,1501,0.411135,-0.075043,-0.806442,-3.299023,1.331094,-2.725547
1,2,76,1521,0.413088,-0.082856,-0.785446,-3.486523,1.893594,-2.288047
1,2,77,1541,0.414553,-0.093598,-0.793747,-0.486523,2.081094,-2.225547
1,2,78,1561,0.411624,-0.066743,-0.820114,-0.799023,6.518594,-1.600547
1,2,79,1581,0.408694,-0.065766,-0.813766,-5.736524,12.706094,0.336953
1,2,80,1601,0.410647,-0.107270,-0.783005,-2.174023,13.143594,-2.350547
1,2,81,1621,0.406741,-0.095063,-0.768845,6.700976,11.268594,-6.100547
1,2,82,1641,0.407229,-0.074555,-0.765915,7.388476,8.518594,-4.600547
1,2,83,1661,0.414553,-0.087250,-0.738571,5.513476,4.456094,-3.975547
1,2,84,1681,0.407717,-0.086274,-0.751755,7.075976,-1.731406,-4.225547
1,2,85,1701,0.405764,-0.079926,-0.778610,10.138476,-4.043906,-3.850547
1,2,86,1721,0.401370,-0.076508,-0.799118,5.575976,-4.668906,-3.038047
1,2,87,1741,0.399905,-0.066254,-0.816208,3.325977,-3.043906,-2.663047
1,2,88,1761,0.400881,-0.067231,-0.806931,-2.549023,-0.418906,-1.288047
1,2,89,1781,0.401858,-0.081879,-0.788864,-6.674024,-0.231406,-1.850547
1,2,90,1801,0.400881,-0.075532,-0.795700,-3.611523,0.706094,-2.725547
1,2,91,1821,0.401370,-0.075532,-0.789352,-3.111523,1.518594,-2.225547
1,2,92,1841,0.400393,-0.080414,-0.783005,-1.611523,1.018594,-1.600547
1,2,93,1861,0.397952,-0.078461,-0.777634,-1.424023,-0.043906,-0.975547
1,2,94,1881,0.395510,-0.076020,-0.778122,-0.486523,-0.918906,-1.913047
1,2,95,1901,0.395510,-0.066254,-0.788864,0.763477,-0.918906,-1.600547
1,2,96,1921,0.397463,-0.075532,-0.789352,-0.674023,-0.856406,-1.225547
1,2,97,1941,0.397463,-0.075532,-0.789841,-0.611523,-0.606406,-1.038047
1,2,98,1961,0.397463,-0.074555,-0.786911,-0.361523,-0.356406,-0.850547
1,2,99,1981,0.396975,-0.078461,-0.781052,0.513477,-0.543906,-0.350547
1,3,0,0,0.319827,0.232086,-0.554489,-45.424023,-7.918906,-41.600548
1,3,1,21,0.482913,0.991851,-0.531540,33.450977,-59.606407,-68.475548
1,3,2,41,0.632327,2.121246,-0.911911,97.638474,-79.231407,23.961952
1,3,3,61,0.448245,2.295074,-1.376266,73.700974,-27.981407,205.649460
1,3,4,81,0.140139,1.422515,-1.365036,4.388476,13.956094,294.711945
1,3,5,101,0.123538,0.450836,-0.991501,-41.986523,27.331093,324.711945
1,3,6,121,0.081057,-0.238618,-0.843063,-72.924026,28.581093,348.149445
1,3,7,141,0.070803,-0.727875,-0.639938,-68.424026,-9.981406,326.461945
1,3,8,161,0.188479,-0.887543,-0.643845,-27.236523,-29.981407,302.586945
1,3,9,181,0.222170,-0.978364,-0.717087,0.138477,-30.793907,268.211945
1,3,10,201,0.257815,-1.011078,-0.780075,41.325977,-25.231407,227.274460
1,3,11,221,0.236819,-1.069672,-0.827927,50.950977,-3.543906,218.399460
1,3,12,241,0.242678,-1.293793,-0.844040,26.825977,22.081093,217.649460
1,3,13,261,0.260745,-1.535981,-0.877731,6.200976,39.393593,184.024460
1,3,14,281,0.244143,-1.739594,-0.860153,-15.424024,47.831093,159.586960
1,3,15,301,0.333987,-1.934418,-0.799606,-36.049023,45.831093,129.836960
1,3,16,321,0.426760,-2.071137,-0.704880,-30.299023,41.018593,72.024452
1,3,17,341,0.489260,-2.191742,-0.647751,10.700976,30.331093,-12.163047
1,3,18,361,0.541506,-2.171235,-0.612106,42.700977,19.831093,-114.288048
1,3,19,381,0.555178,-1.966157,-0.545212,41.325977,7.331094,-206.475540
1,3,20,401,0.543948,-1.610688,-0.494431,31.763477,-9.793906,-262.975555
1,3,21,421,0.485842,-1.312836,-0.538376,38.888477,-27.606407,-302.663055
1,3,22,441,0.375979,-1.086274,-0.654587,63.200977,-42.418907,-348.038055
1,3,23,461,0.197268,-0.809418,-0.765915,111.200974,-55.356407,-384.913055
1,3,24,481,0.003909,-0.299653,-0.819138,136.388474,-69.168907,-398.913055
1,3,25,501,0.092776,0.246246,-0.808884,71.138474,-89.543907,-364.600555
1,3,26,521,0.207034,0.511871,-0.953415,-32.361523,-95.168907,-286.913055
1,3,27,541,0.118167,0.899566,-1.140915,-89.924026,-81.356407,-200.350540
1,3,28,561,0.185061,1.082183,-1.207321,-114.174026,-56.543907,-114.538048
1,3,29,581,0.269045,0.890777,-1.194138,-77.674026,-18.668907,-56.975548
1,3,30,601,0.284182,0.691558,-1.100388,-36.736523,14.393594,-43.913048
1,3,31,621,0.359866,0.569000,-0.843552,4.388476,77.581093,-113.413048
1,3,32,641,0.371096,0.439605,-0.790817,33.700977,20.706093,-43.163048
1,3,33,661,0.366213,0.279449,-0.907516,39.575977,17.581093,-27.413048
1,3,34,681,0.324709,0.156402,-0.972946,43.075977,27.643593,-29.725548
1,3,35,701,0.332034,0.094390,-0.972458,30.950977,26.768593,-29.163048
1,3,36,721,0.446292,0.212066,-0.893845,29.200977,19.206093,-12.225547
1,3,37,741,0.435549,0.441558,-0.763962,-14.049024,5.706094,33.274452
1,3,38,761,0.208499,-0.102387,-0.846481,-53.799023,21.081093,50.399452
1,3,39,781,0.413577,-0.201996,-0.800095,-20.611523,15.331094,22.586952
1,3,40,801,0.415530,-0.176118,-0.769821,-6.424024,7.893594,8.524453
1,3,41,821,0.376467,-0.114106,-0.787888,-1.361523,1.206094,-3.913047
1,3,42,841,0.370120,-0.001801,-0.792282,1.575977,-0.856406,-7.100547
1,3,43,861,0.347659,0.003082,-0.805466,2.763477,-3.793906,2.024453
1,3,44,881,0.349612,-0.067231,-0.818161,6.200976,-3.231406,2.836953
1,3,45,901,0.333499,-0.073578,-0.824020,13.700976,-4.481406,-4.850547
1,3,46,921,0.332522,-0.035981,-0.855759,12.575976,-4.731406,-5.600547
1,3,47,941,0.336917,-0.028657,-0.875778,8.263476,0.018594,-6.413047
1,3,48,961,0.350100,-0.050141,-0.868942,6.263476,4.706094,-5.225547
1,3,49,981,0.350100,-0.065766,-0.843552,1.700977,4.581094,-4.225547
1,3,50,1001,0.329592,-0.060395,-0.852829,-1.424023,0.956094,-0.163047
1,3,51,1021,0.340823,-0.042817,-0.858200,-7.736524,0.956094,2.524453
1,3,52,1041,0.349612,-0.042817,-0.843552,-7.924024,2.768594,1.961953
1,3,53,1061,0.353030,-0.056489,-0.828415,-5.799024,2.893594,2.024453
1,3,54,1081,0.355471,-0.057465,-0.817184,-2.674023,2.206094,0.086953
1,3,55,1101,0.342776,-0.052582,-0.824020,0.075977,2.018594,-1.850547
1,3,56,1121,0.340334,-0.041840,-0.822067,0.700977,1.956094,-2.600547
1,3,57,1141,0.337893,-0.049653,-0.827927,3.825977,2.143594,-2.600547
1,3,58,1161,0.338381,-0.054536,-0.830856,3.013477,1.831094,-3.538047
1,3,59,1181,0.341311,-0.049164,-0.821091,1.700977,0.456094,-3.850547
1,3,60,1201,0.341311,-0.055024,-0.827438,2.013477,-1.606406,-3.538047
1,3,61,1221,0.332522,-0.050141,-0.842087,1.700977,-3.356406,-2.788047
1,3,62,1241,0.333010,-0.045746,-0.857712,0.263477,-2.293906,-1.538047
1,3,63,1261,0.337405,-0.050629,-0.847458,-3.361523,-0.918906,-0.475547
1,3,64,1281,0.340823,-0.053559,-0.838181,-2.674023,-1.043906,-0.788047
1,3,65,1301,0.342776,-0.046723,-0.842087,-2.299023,-0.418906,-0.975547
1,3,66,1321,0.338381,-0.052094,-0.836716,-2.486523,0.393594,-1.225547
1,3,67,1341,0.341311,-0.043305,-0.830368,-2.486523,0.331094,-1.350547
1,3,68,1361,0.334963,-0.044770,-0.833786,-0.236523,0.706094,-1.100547
1,3,69,1381,0.336917,-0.048188,-0.830856,-0.986523,0.768594,-0.725547
1,3,70,1401,0.336917,-0.047211,-0.831833,1.013477,-0.043906,-0.225547
1,3,71,1421,0.338870,-0.054047,-0.845993,-0.049023,0.518594,-0.163047
1,3,72,1441,0.337405,-0.048676,-0.835739,-3.236523,0.456094,0.336953
1,3,73,1461,0.334475,-0.046235,-0.842087,-2.361523,0.706094,0.399453
1,3,74,1481,0.336917,-0.050141,-0.843063,-5.236524,1.768594,0.399453
1,3,75,1501,0.336917,-0.051606,-0.827927,-6.174024,2.081094,1.149453
1,3,76,1521,0.333987,-0.051606,-0.820114,-5.111524,1.581094,0.399453
1,3,77,1541,0.333987,-0.046723,-0.818649,-3.736523,1.706094,-0.475547
1,3,78,1561,0.334963,-0.049653,-0.813766,-2.861523,0.831094,-0.663047
1,3,79,1581,0.333987,-0.046723,-0.813766,-0.674023,-0.918906,-0.475547
1,3,80,1601,0.333987,-0.047700,-0.817673,1.200977,-1.418906,-0.538047
1,3,81,1621,0.334475,-0.048676,-0.818161,2.325977,-1.731406,-0.350547
1,3,82,1641,0.335940,-0.050629,-0.826462,2.325977,-1.981406,-0.350547
1,3,83,1661,0.334475,-0.050141,-0.832809,2.825977,-1.293906,-0.538047
1,3,84,1681,0.335940,-0.055512,-0.832809,1.200977,-0.918906,-1.100547
1,3,85,1701,0.337405,-0.049164,-0.832809,0.888477,-1.043906,-0.975547
1,3,86,1721,0.337405,-0.046723,-0.831833,-0.111523,-0.793906,-0.100547
1,3,87,1741,0.337405,-0.055024,-0.831833,-0.236523,-0.981406,0.274453
1,3,88,1761,0.336428,-0.050141,-0.835739,-0.736523,-0.481406,0.024453
1,3,89,1781,0.335452,-0.048188,-0.831833,-1.049023,0.206094,0.336953
1,3,90,1801,0.334475,-0.050141,-0.826950,-1.111523,0.643594,-0.038047
1,3,91,1821,0.334475,-0.052582,-0.818649,-0.611523,0.268594,-0.225547
1,3,92,1841,0.333987,-0.050141,-0.824509,-0.174023,-0.293906,-0.100547
1,3,93,1861,0.334475,-0.046723,-0.823044,0.263477,0.081094,-0.538047
1,3,94,1881,0.334475,-0.046723,-0.818649,0.513477,-0.418906,-0.475547
1,3,95,1901,0.333987,-0.048188,-0.827438,2.325977,-0.543906,-0.350547
1,3,96,1921,0.334963,-0.048188,-0.831833,1.325977,-0.231406,-0.350547
1,3,97,1941,0.334475,-0.049653,-0.830368,0.638477,0.206094,-0.475547
1,3,98,1961,0.334475,-0.050629,-0.831345,0.138477,0.331094,-0.600547
1,3,99,1981,0.335452,-0.049164,-0.829391,-0.049023,0.268594,-0.413047
1,4,0,0,0.260256,2.161773,-1.366013,-10.611524,-2.981406,199.149460
1,4,1,21,0.274905,1.528961,-1.129684,-93.549026,26.893593,285.086945
1,4,2,41,0.356448,0.929839,-0.706833,-84.111526,15.893594,319.461945
1,4,3,61,0.336917,0.223297,-0.522263,-2.174023,-21.731407,333.586945
1,4,4,81,0.262209,-0.407563,-0.591599,105.263474,-40.043907,311.899445
1,4,5,101,0.173831,-0.771332,-0.735153,133.700974,-32.918907,282.274445
1,4,6,121,0.121096,-0.972016,-0.808884,87.575974,-17.293907,258.961945
1,4,7,141,0.169924,-1.142914,-0.825485,34.513477,-0.731406,249.899460
1,4,8,161,0.180667,-1.361176,-0.893845,-18.924023,17.956093,239.649460
1,4,9,181,0.228518,-1.525727,-0.872849,-65.924026,42.393593,221.086960
1,4,10,201,0.350588,-1.643403,-0.744431,-55.174023,46.893593,165.461960
1,4,11,221,0.432620,-1.701508,-0.768845,-16.361523,29.331093,143.649460
1,4,12,241,0.421389,-1.765473,-0.772751,-0.986523,31.518593,96.399452
1,4,13,261,0.460940,-1.850434,-0.755173,17.388477,26.456093,34.211952
1,4,14,281,0.453127,-1.892914,-0.772263,19.200977,22.143593,-19.850548
1,4,15,301,0.457034,-1.973969,-0.788864,13.700976,24.206093,-80.788048
1,4,16,321,0.512698,-1.900727,-0.715622,16.138477,24.268593,-161.663040
1,4,17,341,0.525393,-1.673676,-0.641403,25.513477,16.956093,-231.600540
1,4,18,361,0.468752,-1.430024,-0.616013,43.075977,7.581094,-280.725555
1,4,19,381,0.363284,-1.148774,-0.545212,53.325977,-14.106406,-327.288055
1,4,20,401,0.262698,-0.772309,-0.519821,39.513477,-44.356407,-356.475555
1,4,21,421,0.145022,-0.411957,-0.643845,13.075976,-59.981407,-361.725555
1,4,22,441,0.067874,0.086089,-0.700485,-11.674024,-73.481407,-344.788055
1,4,23,461,0.168948,0.633453,-0.805466,-36.111523,-67.543907,-297.725555
1,4,24,481,0.231936,0.912261,-0.972458,-32.049023,-52.918907,-226.350540
1,4,25,501,0.281741,1.104156,-1.182907,7.763476,-29.606407,-146.663040
1,4,26,521,0.245608,1.057769,-1.200974,-16.549023,2.706094,-75.225548
1,4,27,541,0.359866,0.844390,-0.985641,-69.236526,15.018594,-23.350548
1,4,28,561,0.507327,0.569488,-0.804977,-69.549026,26.081093,-17.850548
1,4,29,581,0.446780,0.342437,-0.713181,-0.611523,40.831093,-46.350548
1,4,30,601,0.421877,0.186675,-0.839645,37.950977,9.643594,-10.413047
1,4,31,621,0.407229,0.014800,-0.863571,42.638477,20.456093,-9.350547
1,4,32,641,0.388674,-0.123383,-0.819626,54.763477,16.768593,-19.538048
1,4,33,661,0.369631,-0.191254,-0.799118,52.013477,10.206094,-28.225548
1,4,34,681,0.331545,-0.228852,-0.814743,35.263477,5.018594,-35.475548
1,4,35,701,0.302737,-0.226411,-0.827927,2.450977,4.956094,-42.475548
1,4,36,721,0.439944,-0.008637,-0.760544,-16.861523,-1.731406,-45.538048
1,4,37,741,0.635745,0.979156,-0.728317,34.450977,-81.543907,-4.163047
1,4,38,761,0.049319,0.366363,-1.047165,-0.924023,15.268594,42.149452
1,4,39,781,0.225588,-0.260590,-0.931931,-32.674023,28.081093,32.774452
1,4,40,801,0.490237,-0.265961,-0.781540,-0.611523,7.206094,3.899453
1,4,41,821,0.367190,-0.086762,-0.809372,-2.049023,-0.981406,-9.850547
1,4,42,841,0.327151,0.036285,-0.842575,-4.111524,-5.793906,0.024453
1,4,43,861,0.323733,0.000640,-0.874802,-0.736523,4.331094,9.086953
1,4,44,881,0.328616,-0.067231,-0.847458,-9.674024,12.143594,5.211953
1,4,45,901,0.341311,-0.080414,-0.792282,-5.986524,9.018594,-5.288047
1,4,46,921,0.341799,-0.043793,-0.797165,9.450976,2.018594,-4.975547
1,4,47,941,0.341799,-0.050141,-0.828415,9.013476,-1.981406,-0.788047
1,4,48,961,0.341799,-0.055512,-0.851852,5.888476,-2.856406,0.024453
1,4,49,981,0.333499,-0.059418,-0.866013,2.888477,-3.106406,2.336953
1,4,50,1001,0.339358,-0.055512,-0.873337,-4.799024,-2.106406,3.086953
1,4,51,1021,0.345706,-0.036469,-0.867966,-8.924024,0.956094,4.461953
1,4,52,1041,0.352053,-0.056000,-0.845993,-9.611524,4.143594,5.086953
1,4,53,1061,0.362795,-0.062348,-0.821579,-10.424024,4.893594,4.086953
1,4,54,1081,0.361331,-0.062348,-0.804489,-10.049024,3.393594,2.649453
1,4,55,1101,0.366213,-0.057953,-0.798141,-8.361524,1.143594,1.836953
1,4,56,1121,0.354495,-0.048188,-0.809372,-3.111523,-0.981406,1.961953
1,4,57,1141,0.348635,-0.056977,-0.823532,1.263477,-1.231406,1.274453
1,4,58,1161,0.347170,-0.051606,-0.829880,0.450977,-0.356406,0.524453
1,4,59,1181,0.351077,-0.051118,-0.819138,0.638477,0.143594,-0.100547
1,4,60,1201,0.351565,-0.051606,-0.818649,0.950977,-0.606406,-0.413047
1,4,61,1221,0.353030,-0.055024,-0.824020,1.013477,-0.793906,-0.100547
1,4,62,1241,0.346194,-0.057465,-0.824509,-0.799023,-1.168906,0.774453
1,4,63,1261,0.346682,-0.054047,-0.832809,-2.674023,-1.231406,1.461953
1,4,64,1281,0.347659,-0.056977,-0.834274,-3.861523,0.081094,0.711953
1,4,65,1301,0.354495,-0.056489,-0.828903,-4.299024,1.393594,0.274453
1,4,66,1321,0.354006,-0.059907,-0.817673,-3.611523,1.768594,-0.225547
1,4,67,1341,0.364260,-0.063325,-0.814743,-3.486523,1.643594,-1.350547
1,4,68,1361,0.356936,-0.056977,-0.816696,-1.861523,0.768594,-1.850547
1,4,69,1381,0.353518,-0.056489,-0.820114,-1.299023,1.081094,-1.163047
1,4,70,1401,0.353030,-0.057465,-0.821579,-2.861523,1.581094,-0.975547
1,4,71,1421,0.352542,-0.052582,-0.816208,-2.674023,1.581094,-0.288047
1,4,72,1441,0.353030,-0.058930,-0.814743,-0.986523,1.331094,0.024453
1,4,73,1461,0.351077,-0.058442,-0.814743,-1.361523,0.768594,-0.100547
1,4,74,1481,0.352053,-0.054047,-0.810349,-1.111523,0.643594,-0.475547
1,4,75,1501,0.360354,-0.053071,-0.801071,1.325977,0.581094,-2.975547
1,4,76,1521,0.339846,-0.054536,-0.813278,2.513477,-0.481406,-2.163047
1,4,77,1541,0.349612,-0.051606,-0.816208,1.200977,-0.231406,-1.788047
1,4,78,1561,0.340823,-0.051118,-0.816696,2.200977,-0.543906,-1.538047
1,4,79,1581,0.347170,-0.050629,-0.817184,1.138477,-0.356406,-0.975547
1,4,80,1601,0.347170,-0.061371,-0.817184,1.075977,-0.481406,-0.788047
1,4,81,1621,0.347659,-0.053071,-0.817673,0.825977,-0.668906,-0.975547
1,4,82,1641,0.346194,-0.048676,-0.817673,0.825977,-0.168906,-0.600547
1,4,83,1661,0.346682,-0.058930,-0.817184,0.138477,0.268594,-0.725547
1,4,84,1681,0.347659,-0.055024,-0.817184,-0.111523,0.018594,-1.163047
1,4,85,1701,0.345217,-0.049164,-0.817184,0.888477,0.268594,-0.663047
1,4,86,1721,0.345217,-0.057465,-0.817184,0.950977,0.393594,-0.663047
1,4,87,1741,0.346194,-0.053071,-0.817184,0.575977,-0.106406,-1.413047
1,4,88,1761,0.347659,-0.050141,-0.817184,0.575977,-0.606406,-0.163047
1,4,89,1781,0.348635,-0.060395,-0.817184,0.763477,-0.793906,0.086953
1,4,90,1801,0.344729,-0.052094,-0.818649,0.825977,-0.793906,0.149453
1,4,91,1821,0.345706,-0.052582,-0.818161,0.638477,-0.293906,0.086953
1,4,92,1841,0.345706,-0.051118,-0.817184,1.013477,0.018594,0.024453
1,4,93,1861,0.344729,-0.052582,-0.816208,1.013477,0.018594,-0.100547
1,4,94,1881,0.343752,-0.049653,-0.817184,2.575977,-0.668906,-0.225547
1,4,95,1901,0.344729,-0.053071,-0.817184,1.700977,-0.856406,-0.163047
1,4,96,1921,0.344729,-0.051606,-0.819138,1.575977,-0.918906,-0.100547
1,4,97,1941,0.346194,-0.054536,-0.824509,1.200977,-0.856406,-0.225547
1,4,98,1961,0.346194,-0.055512,-0.824020,-0.174023,-0.606406,-0.163047
1,4,99,1981,0.347170,-0.053071,-0.824509,-0.861523,-0.231406,-0.225547
1,5,0,0,0.272952,0.240386,-0.562790,-58.736523,-20.981407,10.336953
1,5,1,21,0.315432,0.459136,-0.521286,-89.424026,-54.168907,16.211952
1,5,2,41,0.557620,1.351714,-0.613083,-58.674023,-107.168907,45.836952
1,5,3,61,0.445803,2.521636,-1.274704,40.450977,-91.856407,176.586960
1,5,4,81,0.377932,2.580719,-1.532516,25.950977,9.456094,310.586945
1,5,5,101,0.294924,1.529937,-0.949020,-61.861523,31.081093,344.524445
1,5,6,121,0.254397,0.331695,-0.494919,2.888477,15.331094,360.711945
1,5,7,141,0.067385,-0.464692,-0.582321,118.638474,5.206094,351.149445
1,5,8,161,-0.126462,-0.998871,-0.711227,162.575974,2.518594,316.211945
1,5,9,181,-0.139646,-1.357270,-0.838669,159.263474,19.518593,299.086945
1,5,10,201,-0.059568,-1.561860,-0.898239,100.700974,42.018593,291.399445
1,5,11,221,0.067385,-1.738618,-0.818649,8.888476,72.518593,254.586960
1,5,12,241,0.172366,-1.814789,-0.629196,-16.611523,91.518593,166.774460
1,5,13,261,0.259280,-1.930512,-0.614059,-21.299023,62.518593,169.711960
1,5,14,281,0.328616,-2.050629,-0.635544,-30.486523,59.331093,113.461952
1,5,15,301,0.379397,-2.096039,-0.610153,-14.486524,57.956093,28.524452
1,5,16,321,0.422366,-2.099946,-0.634079,19.325977,44.893593,-43.913048
1,5,17,341,0.412112,-2.035492,-0.605270,36.950977,44.768593,-124.663048
1,5,18,361,0.422366,-1.829438,-0.508591,16.700977,35.081093,-184.163040
1,5,19,381,0.457034,-1.583832,-0.422653,-15.611524,16.893593,-222.475540
1,5,20,401,0.475588,-1.408539,-0.366013,-17.799023,-9.543906,-256.850555
1,5,21,421,0.396487,-1.150239,-0.425583,27.200977,-33.981407,-295.538055
1,5,22,441,0.229495,-0.880707,-0.530563,81.075974,-57.043907,-345.225555
1,5,23,461,0.094241,-0.472504,-0.530563,85.388474,-87.418907,-385.850555
1,5,24,481,0.086917,0.046539,-0.578415,28.763477,-117.668907,-384.975555
1,5,25,501,0.093264,0.536285,-0.749313,-37.424023,-116.481407,-325.600555
1,5,26,521,0.175784,0.951812,-1.078415,-33.924023,-86.981407,-233.600540
1,5,27,541,0.154299,1.325347,-1.402145,-54.861523,-46.231407,-110.600548
1,5,28,561,0.240237,1.185211,-1.253708,-122.611526,-29.856407,-28.913048
1,5,29,581,0.481448,0.774078,-0.844528,-115.111526,-16.106407,0.274453
1,5,30,601,0.542971,0.351714,-0.738083,-30.861523,-4.856406,-1.913047
1,5,31,621,0.543948,0.234527,-0.759567,47.388477,40.831093,-57.600548
1,5,32,641,0.446292,0.085113,-0.835739,66.638474,7.393594,-25.850548
1,5,33,661,0.420413,-0.074067,-0.926071,48.138477,13.768594,-16.225548
1,5,34,681,0.380862,-0.201020,-0.861618,33.575977,23.706093,-33.913048
1,5,35,701,0.382327,-0.201996,-0.750290,13.075976,14.831094,-52.475548
1,5,36,721,0.396975,-0.157075,-0.678024,-6.236524,11.768594,-49.850548
1,5,37,741,0.394045,-0.082368,-0.695114,-17.799023,6.831094,-47.538048
1,5,38,761,0.554690,0.155914,-0.672653,-3.486523,-13.543906,-44.100548
1,5,39,781,0.695803,1.045562,-0.637009,92.888474,-109.543907,-3.475547
1,5,40,801,0.005374,0.121734,-1.050583,35.575977,16.518593,36.961952
1,5,41,821,0.268069,-0.319184,-0.990036,-39.611523,20.143593,19.211952
1,5,42,841,0.500002,-0.274750,-0.771774,-41.924023,11.393594,1.461953
1,5,43,861,0.404788,-0.072114,-0.765427,7.700976,-7.043906,-3.600547
1,5,44,881,0.355471,0.031402,-0.865524,18.950977,-1.981406,-12.788047
1,5,45,901,0.316409,-0.009125,-0.835739,10.075976,8.643594,-4.100547
1,5,46,921,0.320315,-0.064789,-0.805466,8.575976,8.393594,-4.350547
1,5,47,941,0.326174,-0.047700,-0.796677,6.075976,8.768594,-8.100547
1,5,48,961,0.332522,-0.023286,-0.816208,3.013477,8.081094,-9.225547
1,5,49,981,0.330569,-0.050141,-0.818649,3.450977,6.831094,-6.038047
1,5,50,1001,0.342288,-0.068207,-0.820602,1.575977,3.206094,-1.100547
1,5,51,1021,0.352053,-0.051606,-0.823044,3.763477,3.206094,0.086953
1,5,52,1041,0.354006,-0.057953,-0.825485,5.263476,0.956094,5.649453
1,5,53,1061,0.362307,-0.061371,-0.827927,3.450977,-0.168906,7.336953
1,5,54,1081,0.361331,-0.075532,-0.830856,0.950977,0.831094,7.399453
1,5,55,1101,0.373538,-0.063325,-0.830856,0.325977,1.643594,5.149453
1,5,56,1121,0.363772,-0.056000,-0.831345,0.325977,2.893594,4.086953
1,5,57,1141,0.366213,-0.063813,-0.820602,-1.486523,3.331094,2.524453
1,5,58,1161,0.362307,-0.061860,-0.816208,-1.924023,2.768594,0.024453
1,5,59,1181,0.351077,-0.052094,-0.818161,0.700977,1.831094,-0.975547
1,5,60,1201,0.351565,-0.052582,-0.819138,1.388477,2.518594,-1.038047
1,5,61,1221,0.354495,-0.058442,-0.816696,0.013477,2.143594,-1.288047
1,5,62,1241,0.354983,-0.048188,-0.815231,1.325977,0.456094,-1.225547
1,5,63,1261,0.354006,-0.054047,-0.817673,0.888477,-0.356406,-0.475547
1,5,64,1281,0.356448,-0.057465,-0.821579,0.200977,-0.481406,-0.475547
1,5,65,1301,0.355471,-0.062836,-0.824509,-1.611523,-0.731406,-0.600547
1,5,66,1321,0.354983,-0.056489,-0.826462,-1.236523,-0.918906,-0.538047
1,5,67,1341,0.355959,-0.059418,-0.831833,-2.236523,-0.106406,-0.288047
1,5,68,1361,0.356936,-0.057465,-0.822556,-3.549023,0.456094,-0.288047
1,5,69,1381,0.352542,-0.051118,-0.822067,-3.174023,0.768594,0.399453
1,5,70,1401,0.354006,-0.059418,-0.817184,-1.299023,1.018594,0.024453
1,5,71,1421,0.354983,-0.061371,-0.817184,-1.049023,0.206094,0.274453
1,5,72,1441,0.356448,-0.058930,-0.817184,-0.361523,0.143594,-0.725547
1,5,73,1461,0.359866,-0.049653,-0.819626,-0.049023,0.518594,-1.100547
1,5,74,1481,0.352542,-0.058442,-0.817673,-0.236523,1.143594,-1.663047
1,5,75,1501,0.348635,-0.057953,-0.818161,0.263477,0.581094,-1.163047
1,5,76,1521,0.349612,-0.057465,-0.817184,-0.486523,0.581094,-0.913047
1,5,77,1541,0.348147,-0.055024,-0.817184,0.075977,0.581094,-1.288047
1,5,78,1561,0.347659,-0.052094,-0.817673,-0.424023,0.643594,-1.163047
1,5,79,1581,0.350100,-0.047211,-0.816696,-0.736523,0.768594,-0.850547
1,5,80,1601,0.351565,-0.053559,-0.811813,0.513477,0.206094,-0.350547
1,5,81,1621,0.353518,-0.064789,-0.815720,1.513477,-1.293906,-0.288047
1,5,82,1641,0.353030,-0.058930,-0.824020,1.513477,-1.793906,-0.538047
1,5,83,1661,0.353518,-0.055512,-0.835251,-0.236523,-0.356406,-0.413047
1,5,84,1681,0.353518,-0.057953,-0.828415,-2.049023,1.081094,-0.288047
1,5,85,1701,0.353518,-0.057465,-0.815720,-2.736523,1.206094,-0.475547
1,5,86,1721,0.351077,-0.056977,-0.814743,-1.549023,0.393594,-0.350547
1,5,87,1741,0.349124,-0.054047,-0.817184,-0.049023,0.143594,-0.475547
1,5,88,1761,0.348635,-0.052582,-0.817184,0.700977,-0.231406,-0.413047
1,5,89,1781,0.348635,-0.052094,-0.817184,1.013477,-0.293906,-0.288047
1,5,90,1801,0.350100,-0.054047,-0.817184,1.325977,-0.106406,-0.538047
1,5,91,1821,0.350100,-0.053071,-0.817184,1.763477,-0.231406,-0.663047
1,5,92,1841,0.350588,-0.057465,-0.817184,1.888477,-0.481406,-0.413047
1,5,93,1861,0.350100,-0.057465,-0.819626,2.013477,-0.481406,-0.600547
1,5,94,1881,0.349124,-0.053559,-0.823532,1.388477,-0.106406,-0.475547
1,5,95,1901,0.351077,-0.052582,-0.823044,1.013477,0.393594,-0.475547
1,5,96,1921,0.351077,-0.054536,-0.818161,0.700977,0.456094,0.086953
1,5,97,1941,0.351565,-0.059418,-0.816696,1.075977,0.143594,-0.225547
1,5,98,1961,0.349124,-0.056000,-0.818161,1.513477,-0.231406,-0.288047
1,5,99,1981,0.349612,-0.054536,-0.820114,2.013477,-0.168906,-0.413047
1,6,0,0,0.364749,0.072906,-0.747360,-14.736524,-9.168906,3.586953
1,6,1,21,0.369143,0.233550,-0.673630,-28.736523,-14.168906,-11.475547
1,6,2,41,0.369631,0.423980,-0.546677,-26.486523,-28.793907,-32.538048
1,6,3,61,0.639163,1.140777,-0.438766,53.638477,-106.856407,-28.413048
1,6,4,81,0.375491,1.826812,-1.110641,154.263474,-129.418900,37.086952
1,6,5,101,0.271975,1.825347,-1.607712,107.638474,-35.856407,157.586960
1,6,6,121,0.179690,1.398589,-1.489059,32.138477,13.581094,232.211960
1,6,7,141,0.188479,0.659332,-1.125290,2.575977,25.081093,269.711945
1,6,8,161,0.116702,0.080718,-1.015915,17.013477,32.393593,280.149445
1,6,9,181,0.081545,-0.202485,-1.057907,20.638477,24.893593,282.461945
1,6,10,201,0.033206,-0.399750,-1.106247,-5.674024,33.206093,299.399445
1,6,11,221,-0.036130,-0.588715,-1.036423,-35.549023,39.268593,307.836945
1,6,12,241,-0.033201,-0.818207,-0.927536,-36.924023,50.581093,308.024445
1,6,13,261,0.014163,-1.040864,-0.896286,-25.986523,63.331093,312.086945
1,6,14,281,0.034182,-1.204438,-0.919724,-39.799023,80.706093,302.774445
1,6,15,301,0.007327,-1.425629,-0.857224,-67.111526,86.581093,287.149445
1,6,16,321,0.039065,-1.757172,-0.769333,-51.361523,73.206093,274.024445
1,6,17,341,0.192874,-2.110199,-0.712692,-24.549023,63.143593,228.461960
1,6,18,361,0.394534,-2.527680,-0.640915,-18.111523,59.831093,120.461952
1,6,19,381,0.573733,-2.817719,-0.535934,-17.424023,45.518593,-8.288047
1,6,20,401,0.665530,-2.557465,-0.461716,-13.049024,27.331093,-109.850548
1,6,21,421,0.631350,-2.040375,-0.485641,-8.674024,5.706094,-163.975540
1,6,22,441,0.559084,-1.746430,-0.546677,32.075977,-14.731406,-215.288040
1,6,23,461,0.493655,-1.436371,-0.634079,97.638474,-30.481407,-271.600555
1,6,24,481,0.403323,-1.172700,-0.717575,122.575974,-40.793907,-309.538055
1,6,25,501,0.331057,-0.843110,-0.720016,107.763474,-51.481407,-342.663055
1,6,26,521,0.311038,-0.475922,-0.752731,84.200974,-66.481407,-328.350555
1,6,27,541,0.329104,-0.237153,-0.819138,64.388474,-69.168907,-291.288055
1,6,28,561,0.377932,-0.029633,-0.921677,43.950977,-64.168907,-252.788040
1,6,29,581,0.372561,-0.014985,-1.048141,22.700977,-55.731407,-208.100540
1,6,30,601,0.274905,-0.065766,-1.201950,16.575977,-36.856407,-177.913040
1,6,31,621,0.238284,0.054839,-1.223434,-22.174023,-11.293906,-163.100540
1,6,32,641,0.285647,0.229156,-1.043747,-81.611526,-8.668906,-138.538040
1,6,33,661,0.401370,0.370757,-0.925583,-102.799026,-18.543907,-104.850548
1,6,34,681,0.436526,0.408843,-0.909470,-90.174026,-19.043907,-66.850548
1,6,35,701,0.389163,0.339019,-0.946579,-46.924023,-14.168906,-53.788048
1,6,36,721,0.428713,0.333648,-0.974899,14.575976,-2.793906,-60.475548
1,6,37,741,0.446292,0.356597,-0.945602,37.825977,13.581094,-63.663048
1,6,38,761,0.478518,0.468414,-0.895309,33.888477,63.081093,-99.850548
1,6,39,781,0.475588,0.302886,-0.739548,-16.049023,46.456093,-60.600548
1,6,40,801,0.481936,0.087066,-0.695602,-26.299023,27.518593,-43.538048
1,6,41,821,0.368167,0.004058,-0.733688,9.325976,25.518593,-69.475548
1,6,42,841,0.712405,0.606109,-0.617966,50.138477,-38.106407,-70.725548
1,6,43,861,0.540042,1.210601,-0.803513,66.450974,-77.481407,44.086952
1,6,44,881,-0.026365,0.065582,-1.197556,-32.361523,62.518593,63.649452
1,6,45,901,0.406252,-0.229340,-0.842087,-55.486523,29.393593,46.961952
1,6,46,921,0.454104,-0.428559,-0.713669,-12.111524,28.643593,9.274453
1,6,47,941,0.415042,-0.297211,-0.726852,6.825976,13.331094,-26.913048
1,6,48,961,0.391604,-0.109223,-0.752243,3.325977,-5.731406,-13.538047
1,6,49,981,0.357913,0.056793,-0.797165,14.763476,-11.231406,2.336953
1,6,50,1001,0.269534,0.079254,-0.853806,23.450977,-13.481406,3.211953
1,6,51,1021,0.312014,0.023101,-0.902634,23.138477,6.456094,-15.350547
1,6,52,1041,0.344729,-0.075043,-0.872849,20.200977,12.081094,-3.788047
1,6,53,1061,0.370120,-0.094086,-0.846481,5.075976,4.831094,0.774453
1,6,54,1081,0.395510,-0.068207,-0.824997,-4.361524,3.706094,-1.538047
1,6,55,1101,0.369631,-0.052094,-0.858688,2.200977,2.956094,-3.850547
1,6,56,1121,0.365237,-0.043793,-0.891403,-0.549023,4.268594,-2.100547
1,6,57,1141,0.362307,-0.056977,-0.860153,-10.174024,6.206094,1.899453
1,6,58,1161,0.357913,-0.086762,-0.799606,-14.986524,0.893594,3.774453
1,6,59,1181,0.360354,-0.064789,-0.799606,-9.799024,-3.793906,3.836953
1,6,60,1201,0.353518,-0.044282,-0.818649,-3.549023,-5.856406,5.649453
1,6,61,1221,0.344729,-0.044770,-0.825974,-3.049023,-6.793906,6.961953
1,6,62,1241,0.357424,-0.056000,-0.831833,-3.361523,-6.043906,6.961953
1,6,63,1261,0.361819,-0.065278,-0.833298,-1.674023,-4.418906,6.336953
1,6,64,1281,0.372073,-0.078461,-0.835251,-0.299023,-2.856406,3.399453
1,6,65,1301,0.375491,-0.064301,-0.852341,3.513477,-1.106406,0.336953
1,6,66,1321,0.375491,-0.060883,-0.857224,2.388477,2.831094,-0.538047
1,6,67,1341,0.377444,-0.075043,-0.837204,-1.861523,4.643594,-1.788047
1,6,68,1361,0.376956,-0.063813,-0.831833,-0.861523,3.393594,-1.975547
1,6,69,1381,0.365725,-0.059907,-0.851364,1.575977,3.706094,-1.850547
1,6,70,1401,0.369631,-0.069672,-0.846481,-1.111523,5.456094,-1.975547
1,6,71,1421,0.372561,-0.071625,-0.817184,-3.799023,4.518594,-1.475547
1,6,72,1441,0.373538,-0.058930,-0.816696,-2.299023,1.518594,-1.038047
1,6,73,1461,0.365725,-0.051118,-0.828415,-0.299023,0.893594,-0.038047
1,6,74,1481,0.361819,-0.059418,-0.829391,-1.299023,1.518594,0.211953
1,6,75,1501,0.362307,-0.059418,-0.818649,-1.924023,1.081094,-0.538047
1,6,76,1521,0.362795,-0.056977,-0.818649,-0.799023,0.518594,-0.538047
1,6,77,1541,0.365237,-0.063325,-0.817184,0.075977,0.143594,-1.100547
1,6,78,1561,0.366702,-0.060883,-0.818649,0.450977,-0.606406,-1.163047
1,6,79,1581,0.365725,-0.059907,-0.825974,1.263477,-1.231406,-0.975547
1,6,80,1601,0.365237,-0.058442,-0.832321,1.888477,-0.981406,-0.413047
1,6,81,1621,0.364749,-0.064789,-0.827438,-0.111523,-0.981406,-0.225547
1,6,82,1641,0.364260,-0.058442,-0.828903,0.325977,-1.668906,-0.725547
1,6,83,1661,0.364749,-0.056000,-0.836716,-0.049023,-1.293906,-0.413047
1,6,84,1681,0.364260,-0.058930,-0.831345,-0.486523,-0.543906,0.024453
1,6,85,1701,0.363284,-0.060395,-0.829880,-0.924023,0.018594,0.274453
1,6,86,1721,0.362795,-0.061860,-0.824997,-2.361523,0.206094,0.211953
1,6,87,1741,0.363772,-0.057465,-0.825485,-1.861523,0.018594,-0.163047
1,6,88,1761,0.364260,-0.059418,-0.824997,-1.549023,0.206094,-0.100547
1,6,89,1781,0.362795,-0.056977,-0.821579,0.075977,0.018594,-0.163047
1,6,90,1801,0.362307,-0.056977,-0.823532,0.138477,-0.106406,0.024453
1,6,91,1821,0.364749,-0.060883,-0.822556,0.763477,-0.043906,0.024453
1,6,92,1841,0.365237,-0.062836,-0.821579,0.700977,-0.543906,-0.100547
1,6,93,1861,0.365237,-0.061371,-0.826462,0.513477,-0.668906,0.149453
1,6,94,1881,0.366213,-0.063813,-0.834274,0.513477,-0.293906,-0.288047
1,6,95,1901,0.366213,-0.058442,-0.835251,-0.111523,0.393594,-0.600547
1,6,96,1921,0.364260,-0.061860,-0.831345,-0.924023,1.018594,-0.288047
1,6,97,1941,0.362307,-0.064301,-0.825485,-0.986523,1.456094,-0.663047
1,6,98,1961,0.363284,-0.058442,-0.816696,-1.549023,1.018594,-0.975547
1,6,99,1981,0.363284,-0.058442,-0.817184,0.700977,-0.231406,-0.788047
1,7,0,0,0.340334,0.124175,-0.719040,-15.736524,-1.293906,-4.163047
1,7,1,21,0.347170,0.369293,-0.613571,-51.361523,-27.481407,-9.600547
1,7,2,41,0.513186,0.697418,-0.581345,-38.174023,-57.981407,-1.913047
1,7,3,61,0.623538,1.572906,-0.894821,81.513474,-100.856407,75.836952
1,7,4,81,0.293948,1.790191,-1.454391,102.575974,-35.668907,164.899460
1,7,5,101,0.334963,1.255523,-1.155563,-9.549024,25.268593,222.399460
1,7,6,121,0.461428,0.706207,-0.727341,-2.674023,4.393594,245.961960
1,7,7,141,0.458499,0.341461,-0.764938,72.513474,-10.356406,238.836960
1,7,8,161,0.340334,0.135406,-0.983688,104.888474,-5.418906,227.024460
1,7,9,181,0.248049,0.073394,-1.079880,89.950974,11.331094,252.149460
1,7,10,201,0.200686,-0.237153,-0.997360,46.763477,30.768593,288.399445
1,7,11,221,0.077639,-0.704926,-0.940231,10.888476,50.081093,295.274445
1,7,12,241,0.004397,-1.015961,-0.940231,-31.611523,70.706093,305.961945
1,7,13,261,-0.016599,-1.336274,-0.899216,-79.611526,87.018593,324.211945
1,7,14,281,0.052249,-1.622895,-0.851852,-94.674026,87.643593,310.836945
1,7,15,301,0.140139,-1.851411,-0.760544,-66.486526,81.143593,256.899445
1,7,16,321,0.232913,-2.244477,-0.694138,-39.799023,59.143593,184.774460
1,7,17,341,0.445803,-2.510590,-0.621384,-14.549024,47.456093,60.024452
1,7,18,361,0.560549,-2.249848,-0.591110,31.450977,37.581093,-38.975548
1,7,19,381,0.505374,-1.848969,-0.656540,60.388477,16.643593,-76.850548
1,7,20,401,0.486819,-1.699067,-0.696579,56.138477,-0.543906,-100.850548
1,7,21,421,0.546389,-1.630219,-0.683884,42.388477,-5.356406,-145.413040
1,7,22,441,0.557131,-1.466645,-0.664352,45.575977,-9.168906,-190.288040
1,7,23,461,0.520999,-1.220551,-0.680466,57.575977,-16.106407,-225.600540
1,7,24,481,0.501956,-0.972504,-0.678024,51.075977,-24.606407,-243.975540
1,7,25,501,0.516604,-0.806489,-0.642868,34.763477,-35.543907,-244.538040
1,7,26,521,0.485842,-0.666840,-0.616501,30.075977,-52.293907,-241.163040
1,7,27,541,0.433108,-0.499360,-0.708298,47.450977,-66.793907,-241.600540
1,7,28,561,0.415042,-0.352875,-0.842087,47.200977,-66.543907,-236.288040
1,7,29,581,0.399417,-0.252778,-0.896286,41.638477,-64.793907,-228.100540
1,7,30,601,0.388674,-0.042328,-0.971970,45.200977,-59.668907,-206.100540
1,7,31,621,0.373049,0.139800,-1.077438,45.263477,-61.418907,-179.350540
1,7,32,641,0.370608,0.240386,-1.174606,15.638476,-59.731407,-153.225540
1,7,33,661,0.377444,0.259918,-1.165817,-16.736523,-60.106407,-132.788040
1,7,34,681,0.395999,0.336578,-1.137985,-11.424024,-52.231407,-124.350548
1,7,35,701,0.330081,0.464019,-1.173141,-16.799023,-39.856407,-85.350548
1,7,36,721,0.385745,0.718414,-1.264450,-64.174026,-18.106407,-20.100548
1,7,37,741,0.598147,0.748687,-1.232712,-104.236526,17.268593,27.461952
1,7,38,761,0.720217,0.537261,-0.939743,-84.236526,80.268593,-39.350548
1,7,39,781,0.627932,0.277984,-0.851364,-4.611524,19.706093,-22.225548
1,7,40,801,0.478518,0.084136,-0.950485,78.263474,13.331094,-17.788048
1,7,41,821,0.701174,0.278961,-0.861130,33.450977,7.518594,-0.413047
1,7,42,841,0.556643,0.259429,-0.871384,-34.861523,0.018594,29.086952
1,7,43,861,0.398440,-0.211274,-0.871384,16.763477,11.893594,3.461953
1,7,44,881,0.550295,-0.172211,-0.836227,33.700977,-8.606406,-26.288048
1,7,45,901,0.472170,-0.161957,-0.852829,46.200977,9.518594,-53.538048
1,7,46,921,0.285647,-0.265473,-0.926559,50.575977,10.081094,-57.663048
1,7,47,941,0.406741,-0.010102,-0.999313,41.138477,23.768593,-87.600548
1,7,48,961,0.448733,0.014800,-0.933884,19.263477,18.331093,-43.663048
1,7,49,981,0.291506,-0.064301,-0.985153,-8.986524,-3.418906,-7.350547
1,7,50,1001,0.322268,-0.047700,-0.979782,-13.736524,-5.293906,3.899453
1,7,51,1021,0.361819,-0.036469,-0.949509,-5.424024,-5.606406,19.524452
1,7,52,1041,0.354006,-0.098969,-0.949509,-0.674023,-4.481406,20.399452
1,7,53,1061,0.372561,-0.083344,-0.967087,5.888476,-4.356406,6.024453
1,7,54,1081,0.395999,-0.047211,-0.959763,-7.424024,-7.668906,12.586953
1,7,55,1101,0.402834,-0.061860,-0.946091,-21.174023,-10.418906,20.336952
1,7,56,1121,0.414553,-0.085786,-0.929489,-21.986523,-12.043906,19.836952
1,7,57,1141,0.422854,-0.092621,-0.908493,-23.174023,-16.731407,26.586952
1,7,58,1161,0.428713,-0.093598,-0.908981,-27.736523,-20.481407,30.461952
1,7,59,1181,0.424319,-0.063325,-0.916794,-17.611523,-6.356406,3.711953
1,7,60,1201,0.374026,-0.062836,-0.965134,-1.049023,-6.981406,7.836953
1,7,61,1221,0.409182,-0.049164,-0.966599,-5.486524,1.643594,10.649453
1,7,62,1241,0.428225,-0.083832,-0.909470,-10.736524,5.893594,7.586953
1,7,63,1261,0.440432,-0.129731,-0.875290,-6.861524,-0.543906,10.711953
1,7,64,1281,0.413088,-0.087739,-0.883591,-8.549024,-3.981406,9.774453
1,7,65,1301,0.432620,-0.050629,-0.917282,-11.924024,-2.231406,7.711953
1,7,66,1321,0.419436,-0.070649,-0.936813,-3.174023,0.768594,5.336953
1,7,67,1341,0.425784,-0.092621,-0.929489,-4.986524,4.956094,4.774453
1,7,68,1361,0.451663,-0.121430,-0.886032,-9.236524,4.831094,2.524453
1,7,69,1381,0.461917,-0.105317,-0.882614,2.700977,1.831094,-1.975547
1,7,70,1401,0.448733,-0.096039,-0.899216,6.950976,-0.606406,-2.225547
1,7,71,1421,0.438967,-0.106782,-0.916306,6.575976,-1.043906,-2.663047
1,7,72,1441,0.434573,-0.090668,-0.925095,4.138476,-0.106406,-3.163047
1,7,73,1461,0.437991,-0.088227,-0.906540,0.388477,0.331094,-1.850547
1,7,74,1481,0.445315,-0.094086,-0.896774,3.825977,0.581094,-3.100547
1,7,75,1501,0.425784,-0.090668,-0.908981,4.700976,0.018594,-5.413047
1,7,76,1521,0.423342,-0.090180,-0.923141,5.200976,-0.043906,-4.913047
1,7,77,1541,0.424807,-0.092621,-0.923141,5.263476,1.018594,-3.850547
1,7,78,1561,0.423831,-0.085297,-0.923630,2.263477,1.643594,-2.475547
1,7,79,1581,0.424807,-0.087250,-0.913376,-1.861523,1.768594,-1.475547
1,7,80,1601,0.427737,-0.084321,-0.905075,-3.049023,0.956094,-0.663047
1,7,81,1621,0.428225,-0.091157,-0.901657,-2.049023,-0.481406,-0.350547
1,7,82,1641,0.428713,-0.088715,-0.909958,-1.674023,-1.418906,-0.538047
1,7,83,1661,0.425295,-0.096528,-0.916306,0.138477,-1.106406,-0.788047
1,7,84,1681,0.422366,-0.088715,-0.922165,1.263477,-0.543906,-1.413047
1,7,85,1701,0.424807,-0.080414,-0.910934,-0.486523,0.393594,-1.038047
1,7,86,1721,0.425295,-0.095063,-0.901657,-0.299023,-0.043906,-1.413047
1,7,87,1741,0.425295,-0.088715,-0.913864,-0.174023,-0.731406,-1.913047
1,7,88,1761,0.425784,-0.088715,-0.921677,-0.611523,0.331094,-2.225547
1,7,89,1781,0.423831,-0.089692,-0.917282,-1.111523,1.206094,-2.725547
1,7,90,1801,0.424319,-0.086274,-0.909470,-1.986523,1.331094,-2.413047
1,7,91,1821,0.422854,-0.082856,-0.906052,-1.299023,0.893594,-2.225547
1,7,92,1841,0.421389,-0.082856,-0.904099,-0.361523,0.331094,-1.788047
1,7,93,1861,0.416995,-0.084321,-0.904587,-0.361523,-0.481406,-1.225547
1,7,94,1881,0.416018,-0.080414,-0.909958,1.638477,-0.668906,-0.913047
1,7,95,1901,0.417483,-0.085297,-0.913376,2.263477,0.018594,-0.788047
1,7,96,1921,0.418948,-0.082856,-0.909470,-0.361523,-0.168906,-0.725547
1,7,97,1941,0.419924,-0.082856,-0.912888,-0.111523,-0.231406,-0.225547
1,7,98,1961,0.421389,-0.086762,-0.910934,-0.674023,-0.168906,-0.100547
1,7,99,1981,0.418948,-0.085786,-0.911423,-0.111523,-0.543906,-0.163047
1,8,0,0,0.645999,1.155914,-0.904587,-13.486524,-98.668907,34.836952
1,8,1,21,0.455569,1.498687,-1.295700,31.575977,-71.106407,68.961952
1,8,2,41,0.531741,1.356109,-1.261520,55.450977,-18.918907,145.024460
1,8,3,61,0.472170,0.881011,-1.068161,65.763474,11.331094,193.024460
1,8,4,81,0.397952,0.411285,-0.984177,67.013474,21.831093,204.649460
1,8,5,101,0.364260,0.195953,-0.976852,75.575974,19.893593,211.024460
1,8,6,121,0.366213,0.105621,-1.033493,81.763474,16.331093,226.836960
1,8,7,141,0.293459,-0.097504,-1.096970,62.513477,30.206093,256.711945
1,8,8,161,0.189456,-0.445649,-1.049118,45.513477,47.081093,272.961945
1,8,9,181,0.096682,-0.799653,-1.030075,11.763476,61.268593,286.211945
1,8,10,201,0.083010,-1.047700,-0.993454,-49.799023,86.768593,294.774445
1,8,11,221,0.164553,-1.239106,-0.877243,-88.424026,95.956093,292.586945
1,8,12,241,0.166018,-1.442719,-0.803024,-81.611526,93.268593,275.211945
1,8,13,261,0.199709,-1.783051,-0.736618,-63.924023,84.081093,244.649460
1,8,14,281,0.272952,-2.309906,-0.666794,-52.236523,66.581093,168.149460
1,8,15,301,0.455081,-2.493989,-0.554977,-21.049023,50.893593,35.524452
1,8,16,321,0.590334,-2.158051,-0.528122,6.763476,26.581093,-41.538048
1,8,17,341,0.512209,-1.818696,-0.628708,12.513476,-0.793906,-62.788048
1,8,18,361,0.524905,-1.716157,-0.679001,28.013477,-12.981406,-100.225548
1,8,19,381,0.551272,-1.581391,-0.689255,30.888477,-26.543907,-149.350540
1,8,20,401,0.561038,-1.323578,-0.724411,38.513477,-36.606407,-191.413040
1,8,21,421,0.558108,-1.092621,-0.792282,47.138477,-42.231407,-211.100540
1,8,22,441,0.540042,-0.871918,-0.810837,43.138477,-44.293907,-217.038040
1,8,23,461,0.555667,-0.713715,-0.780075,40.200977,-49.856407,-219.163040
1,8,24,481,0.547854,-0.626313,-0.856735,38.138477,-54.043907,-211.600540
1,8,25,501,0.476565,-0.518403,-0.969528,22.075977,-51.043907,-208.725540
1,8,26,521,0.461917,-0.418305,-0.991501,2.950977,-44.043907,-208.975540
1,8,27,541,0.459475,-0.300141,-0.993942,-5.174024,-39.043907,-206.163040
1,8,28,561,0.448245,-0.139985,-0.993454,-15.236524,-33.293907,-201.725540
1,8,29,581,0.449221,0.083648,-0.996872,-33.361523,-35.731407,-185.100540
1,8,30,601,0.501467,0.290679,-1.025192,-52.549023,-42.856407,-154.100540
1,8,31,621,0.527346,0.392730,-1.050095,-54.486523,-28.856407,-126.600548
1,8,32,641,0.514163,0.405425,-1.070602,-46.111523,-10.793906,-107.538048
1,8,33,661,0.524905,0.421050,-1.028122,-33.236523,6.018594,-92.100548
1,8,34,681,0.582034,0.457183,-0.909470,-36.049023,11.393594,-69.413048
1,8,35,701,0.616213,0.384429,-0.864548,-31.736523,14.018594,-46.038048
1,8,36,721,0.574221,0.272613,-0.890427,-21.486523,19.018593,-38.288048
1,8,37,741,0.547366,0.204254,-0.896286,-20.674023,19.643593,-31.725548
1,8,38,761,0.529299,0.166168,-0.873337,-18.174023,16.893593,-28.225548
1,8,39,781,0.525881,0.089019,-0.825974,-4.674024,17.518593,-26.350548
1,8,40,801,0.544436,0.063140,-0.809372,11.138476,12.081094,-28.163048
1,8,41,821,0.663088,0.505035,-0.830368,-3.299023,-18.356407,9.524453
1,8,42,841,0.411135,0.231597,-0.918747,-21.549023,23.018593,19.149452
1,8,43,861,0.431643,-0.222504,-0.841599,4.575976,40.518593,-3.663047
1,8,44,881,0.451663,-0.308442,-0.793747,27.138477,20.831093,-18.850548
1,8,45,901,0.454104,-0.227875,-0.784470,17.263477,12.518594,-22.163048
1,8,46,921,0.472659,-0.040864,-0.782028,-3.861523,-1.668906,-5.413047
1,8,47,941,0.437991,-0.007172,-0.831345,-0.799023,-15.043906,6.774453
1,8,48,961,0.406252,-0.045746,-0.880661,6.325976,-8.356406,6.899453
1,8,49,981,0.420901,-0.094575,-0.869431,2.700977,-0.418906,3.836953
1,8,50,1001,0.438967,-0.098969,-0.842087,3.450977,1.893594,0.524453
1,8,51,1021,0.438479,-0.096039,-0.842087,7.825976,-1.606406,-0.538047
1,8,52,1041,0.439456,-0.085786,-0.845993,8.513476,-5.981406,0.961953
1,8,53,1061,0.434573,-0.091645,-0.860153,8.513476,-6.918906,1.461953
1,8,54,1081,0.429202,-0.091645,-0.871384,6.263476,-5.543906,0.649453
1,8,55,1101,0.434573,-0.081391,-0.868942,2.200977,-3.481406,1.211953
1,8,56,1121,0.439456,-0.090668,-0.866989,1.263477,-0.043906,-0.788047
1,8,57,1141,0.438967,-0.097016,-0.863571,3.075977,2.393594,-2.913047
1,8,58,1161,0.434573,-0.087250,-0.872849,6.075976,3.081094,-5.038047
1,8,59,1181,0.431155,-0.086274,-0.879196,5.575976,4.206094,-4.538047
1,8,60,1201,0.432131,-0.098481,-0.871872,2.888477,4.268594,-4.788047
1,8,61,1221,0.435061,-0.081879,-0.857224,-0.361523,2.706094,-4.100547
1,8,62,1241,0.434573,-0.081391,-0.848923,-3.549023,0.331094,-1.538047
1,8,63,1261,0.428225,-0.086762,-0.873337,2.325977,0.206094,-1.538047
1,8,64,1281,0.422366,-0.084809,-0.880661,0.700977,1.456094,-1.163047
1,8,65,1301,0.426760,-0.090668,-0.865524,-2.111523,1.331094,0.461953
1,8,66,1321,0.436038,-0.084321,-0.858200,-2.174023,0.018594,1.399453
1,8,67,1341,0.433108,-0.090180,-0.862595,-4.861524,-0.731406,2.711953
1,8,68,1361,0.433108,-0.088227,-0.857224,-6.611524,-1.168906,2.899453
1,8,69,1381,0.433596,-0.091157,-0.858200,-5.361524,-1.731406,2.274453
1,8,70,1401,0.434573,-0.095063,-0.866989,-2.299023,-1.231406,0.649453
1,8,71,1421,0.437991,-0.091157,-0.862595,-2.924023,-0.543906,-0.350547
1,8,72,1441,0.437502,-0.098481,-0.851852,-1.674023,-0.356406,-1.600547
1,8,73,1461,0.433108,-0.090668,-0.850876,0.075977,-0.606406,-2.100547
1,8,74,1481,0.428713,-0.086762,-0.856247,0.700977,-0.606406,-2.663047
1,8,75,1501,0.427249,-0.080414,-0.863571,1.638477,0.081094,-2.788047
1,8,76,1521,0.425784,-0.088715,-0.857224,0.138477,-0.231406,-1.913047
1,8,77,1541,0.423831,-0.090180,-0.854782,1.013477,-1.418906,-0.975547
1,8,78,1561,0.425295,-0.086274,-0.862595,0.200977,-1.606406,0.461953
1,8,79,1581,0.424807,-0.089692,-0.868942,-0.799023,-0.793906,0.399453
1,8,80,1601,0.430178,-0.082856,-0.866013,-1.799023,0.143594,0.461953
1,8,81,1621,0.433596,-0.093110,-0.853806,-1.361523,0.143594,-0.038047
1,8,82,1641,0.434084,-0.083344,-0.852829,-0.549023,-0.668906,-0.538047
1,8,83,1661,0.431155,-0.087739,-0.850876,-0.799023,-1.231406,-0.538047
1,8,84,1681,0.426760,-0.090180,-0.856735,0.575977,-1.356406,-0.663047
1,8,85,1701,0.422854,-0.086762,-0.865036,1.013477,-0.918906,-0.600547
1,8,86,1721,0.425295,-0.085297,-0.861130,-0.424023,-0.606406,0.399453
1,8,87,1741,0.429690,-0.089203,-0.855270,0.638477,-1.168906,0.399453
1,8,88,1761,0.431155,-0.089203,-0.857224,1.075977,-1.606406,0.774453
1,8,89,1781,0.430178,-0.089203,-0.861130,1.075977,-2.106406,0.211953
1,8,90,1801,0.429690,-0.088715,-0.870407,1.825977,-1.481406,-0.100547
1,8,91,1821,0.430178,-0.089692,-0.867477,0.513477,-0.793906,0.274453
1,8,92,1841,0.430667,-0.090180,-0.865036,0.388477,-0.543906,0.274453
1,8,93,1861,0.428225,-0.087250,-0.868454,-0.174023,0.018594,0.586953
1,8,94,1881,0.430178,-0.091645,-0.860641,-0.674023,0.081094,0.711953
1,8,95,1901,0.430667,-0.088227,-0.858688,-0.111523,-0.106406,0.461953
1,8,96,1921,0.433108,-0.089692,-0.862106,0.200977,-0.043906,0.086953
1,8,97,1941,0.429690,-0.089692,-0.865036,-0.174023,-0.043906,-0.288047
1,8,98,1961,0.429690,-0.087739,-0.863571,-0.236523,-0.543906,0.211953
1,8,99,1981,0.429202,-0.092621,-0.861130,-0.736523,-0.856406,0.399453
1,9,0,0,0.510256,1.340972,-0.823044,68.263474,-108.856407,19.524452
1,9,1,21,0.449709,1.375152,-1.283981,101.575974,-56.918907,90.211952
1,9,2,41,0.438967,1.135406,-1.259567,21.388477,-19.106407,168.774460
1,9,3,61,0.427737,0.697418,-1.101364,-13.799024,-5.731406,218.899460
1,9,4,81,0.384768,0.366363,-1.077927,-17.111523,7.081094,243.524460
1,9,5,101,0.322268,0.110992,-1.027145,-35.111523,1.268594,258.649445
1,9,6,121,0.302737,-0.095551,-0.948532,3.325977,-2.043906,264.711945
1,9,7,141,0.254397,-0.274750,-0.949509,43.325977,3.768594,265.899445
1,9,8,161,0.184573,-0.492524,-0.999802,56.638477,16.706093,276.836945
1,9,9,181,0.119631,-0.722016,-1.005661,35.513477,37.643593,297.399445
1,9,10,201,0.093264,-1.002289,-0.979294,2.263477,56.643593,298.961945
1,9,11,221,0.147952,-1.215180,-0.974899,-36.986523,71.643593,288.024445
1,9,12,241,0.162112,-1.451508,-0.892380,-73.486526,67.893593,280.399445
1,9,13,261,0.222170,-1.714692,-0.794235,-37.861523,53.206093,257.274445
1,9,14,281,0.305178,-1.972504,-0.766403,5.638476,45.018593,206.274460
1,9,15,301,0.430178,-2.340668,-0.737595,45.700977,47.143593,112.024452
1,9,16,321,0.594729,-2.395844,-0.675583,55.013477,45.518593,-1.163047
1,9,17,341,0.568850,-2.127289,-0.655563,38.638477,29.893593,-67.538048
1,9,18,361,0.529788,-1.845063,-0.694626,22.013477,8.831094,-95.288048
1,9,19,381,0.568850,-1.694184,-0.711716,12.763476,4.206094,-144.163040
1,9,20,401,0.568850,-1.481782,-0.680466,29.325977,4.018594,-185.600540
1,9,21,421,0.562014,-1.209809,-0.629196,42.075977,-13.168906,-211.163040
1,9,22,441,0.582034,-1.013520,-0.613083,38.700977,-30.731407,-232.413040
1,9,23,461,0.562991,-0.846528,-0.646774,27.700977,-39.231407,-240.725540
1,9,24,481,0.552249,-0.696625,-0.700485,23.263477,-47.606407,-245.413040
1,9,25,501,0.540042,-0.537446,-0.744919,20.200977,-54.168907,-246.100540
1,9,26,521,0.526858,-0.344086,-0.819626,18.825977,-56.793907,-236.850540
1,9,27,541,0.533206,-0.199067,-0.881638,13.013476,-54.981407,-217.600540
1,9,28,561,0.521487,-0.094575,-0.911423,8.138476,-50.106407,-200.788040
1,9,29,581,0.496584,-0.021332,-0.998825,15.013476,-50.668907,-186.913040
1,9,30,601,0.491213,0.114898,-1.119431,12.325976,-39.231407,-165.413040
1,9,31,621,0.491702,0.223297,-1.124313,-29.549023,-15.918906,-128.475540
1,9,32,641,0.495608,0.258941,-1.048630,-63.299023,-2.356406,-100.850548
1,9,33,661,0.544436,0.298004,-0.962204,-43.174023,6.018594,-86.975548
1,9,34,681,0.580081,0.302886,-0.909470,-15.861524,7.831094,-75.163048
1,9,35,701,0.557620,0.279449,-0.886032,-0.736523,5.831094,-48.725548
1,9,36,721,0.574221,0.266754,-0.874802,6.200976,2.206094,-57.600548
1,9,37,741,0.551760,0.174468,-0.907516,11.138476,2.831094,-52.600548
1,9,38,761,0.504885,0.118804,-0.959763,7.888476,9.768594,-46.913048
1,9,39,781,0.497073,0.072906,-0.943649,-6.674024,18.081093,-37.288048
1,9,40,801,0.489749,0.035797,-0.876266,-6.361524,17.018593,-34.663048
1,9,41,821,0.488772,-0.008149,-0.834274,5.763476,14.206094,-35.350548
1,9,42,841,0.442874,-0.045746,-0.848923,14.263476,11.643594,-36.413048
1,9,43,861,0.414065,-0.077485,-0.867966,10.888476,11.081094,-36.788048
1,9,44,881,0.590823,0.122711,-0.805466,6.575976,-7.668906,-20.663048
1,9,45,901,0.637698,0.807769,-0.891403,-12.736524,-33.793907,32.086952
1,9,46,921,0.219241,0.148101,-0.990524,-48.361523,52.393593,26.399452
1,9,47,941,0.470706,-0.249360,-0.784470,-38.236523,34.143593,34.274452
1,9,48,961,0.464358,-0.372895,-0.752731,-6.236524,22.518593,3.024453
1,9,49,981,0.434573,-0.264985,-0.749802,9.950976,4.643594,-18.663048
1,9,50,1001,0.457034,-0.010590,-0.768845,2.075977,-3.356406,-15.163047
1,9,51,1021,0.426272,0.063629,-0.808395,1.575977,-7.981406,-4.538047
1,9,52,1041,0.404299,-0.034516,-0.864548,11.263476,-4.231406,2.774453
1,9,53,1061,0.423342,-0.112153,-0.845505,10.575976,-1.668906,-1.100547
1,9,54,1081,0.427249,-0.104340,-0.838669,12.138476,-3.293906,-2.913047
1,9,55,1101,0.419924,-0.082368,-0.856247,10.263476,-2.043906,1.461953
1,9,56,1121,0.433596,-0.076996,-0.860641,6.888476,-1.856406,1.399453
1,9,57,1141,0.420901,-0.082368,-0.879684,6.763476,-0.043906,1.149453
1,9,58,1161,0.437014,-0.088715,-0.876266,2.325977,2.956094,1.586953
1,9,59,1181,0.435061,-0.098969,-0.864059,-1.361523,4.018594,-0.100547
1,9,60,1201,0.439456,-0.093110,-0.842575,-2.924023,3.893594,-1.975547
1,9,61,1221,0.436526,-0.088715,-0.835251,-0.861523,1.268594,-1.913047
1,9,62,1241,0.431155,-0.082368,-0.853317,2.388477,0.456094,-0.600547
1,9,63,1261,0.432620,-0.092621,-0.850876,-0.549023,0.893594,0.461953
1,9,64,1281,0.430667,-0.095063,-0.846481,-0.861523,0.268594,-0.538047
1,9,65,1301,0.424807,-0.082856,-0.848923,1.075977,0.206094,-0.788047
1,9,66,1321,0.427737,-0.090180,-0.855270,1.075977,1.081094,-0.975547
1,9,67,1341,0.436526,-0.089692,-0.847946,1.138477,1.081094,-1.413047
1,9,68,1361,0.443850,-0.092621,-0.838669,3.200977,0.706094,-2.663047
1,9,69,1381,0.426760,-0.094086,-0.850876,3.638477,-0.793906,-2.913047
1,9,70,1401,0.423342,-0.079926,-0.863571,2.575977,-0.293906,-2.725547
1,9,71,1421,0.416018,-0.085786,-0.867966,1.450977,0.643594,-2.038047
1,9,72,1441,0.419924,-0.090180,-0.863571,-0.361523,1.331094,-1.788047
1,9,73,1461,0.416995,-0.085297,-0.853317,-3.299023,1.643594,-1.600547
1,9,74,1481,0.421877,-0.077973,-0.846970,-3.361523,1.643594,-1.288047
1,9,75,1501,0.422366,-0.081391,-0.849899,-0.986523,1.893594,-1.163047
1,9,76,1521,0.424319,-0.091157,-0.841599,-0.674023,1.456094,-1.163047
1,9,77,1541,0.423342,-0.090668,-0.839157,0.325977,0.331094,-1.475547
1,9,78,1561,0.421389,-0.083832,-0.845016,1.325977,-0.356406,-1.413047
1,9,79,1581,0.422366,-0.080903,-0.850876,1.638477,-0.606406,-1.100547
1,9,80,1601,0.421877,-0.091157,-0.857224,2.325977,-0.231406,-1.100547
1,9,81,1621,0.422366,-0.086762,-0.855759,1.075977,0.206094,-1.288047
1,9,82,1641,0.420901,-0.087739,-0.855270,-0.111523,0.143594,-1.413047
1,9,83,1661,0.419436,-0.080414,-0.858200,-0.049023,0.643594,-1.288047
1,9,84,1681,0.421877,-0.083832,-0.850876,-0.549023,0.768594,-1.100547
1,9,85,1701,0.419436,-0.083832,-0.850876,-0.236523,0.268594,-0.913047
1,9,86,1721,0.418459,-0.085297,-0.854294,0.013477,0.456094,-1.225547
1,9,87,1741,0.417483,-0.081879,-0.854294,-1.174023,0.893594,-0.788047
1,9,88,1761,0.417971,-0.087739,-0.845993,-1.486523,0.581094,-1.038047
1,9,89,1781,0.416995,-0.079438,-0.852829,-0.549023,0.643594,-1.038047
1,9,90,1801,0.418459,-0.083344,-0.846970,-1.424023,0.518594,-0.725547
1,9,91,1821,0.417483,-0.083344,-0.846970,-0.924023,0.206094,-0.850547
1,9,92,1841,0.418459,-0.084321,-0.846481,-0.674023,0.018594,-0.475547
1,9,93,1861,0.416995,-0.082856,-0.850876,0.075977,-0.043906,-0.850547
1,9,94,1881,0.415042,-0.081391,-0.858200,0.200977,0.706094,-1.038047
1,9,95,1901,0.416018,-0.081391,-0.851852,-1.549023,1.393594,-0.663047
1,9,96,1921,0.417483,-0.079926,-0.836227,-1.361523,0.456094,-0.663047
1,9,97,1941,0.416506,-0.083832,-0.842575,0.825977,-0.481406,-0.538047
1,9,98,1961,0.417483,-0.084321,-0.851852,0.700977,-0.606406,-0.413047
1,9,99,1981,0.416995,-0.084321,-0.853806,-0.236523,-0.481406,-0.350547
1,10,0,0,0.376956,0.050933,-0.773239,-10.736524,-7.356406,-27.663048
1,10,1,21,0.514651,0.431793,-0.691208,0.825977,-27.168907,-34.475548
1,10,2,41,0.687502,1.231109,-0.737106,0.200977,-57.731407,-0.913047
1,10,3,61,0.540042,1.382964,-1.000290,-2.611523,-40.481407,67.086952
1,10,4,81,0.481448,1.356109,-1.165817,-7.924024,-22.918907,129.524460
1,10,5,101,0.473147,1.069976,-1.040817,-35.611523,-11.918906,196.024460
1,10,6,121,0.405276,0.722320,-0.905563,-13.736524,-9.543906,229.024460
1,10,7,141,0.350100,0.472808,-0.878708,17.075977,-10.981406,242.836960
1,10,8,161,0.298342,0.328277,-0.903610,44.138477,-17.731407,254.524460
1,10,9,181,0.241702,0.087554,-0.944138,55.388477,-12.668906,284.336945
1,10,10,201,0.088381,-0.318207,-1.023727,40.700977,4.768594,304.024445
1,10,11,221,-0.041990,-0.694184,-1.059860,-16.799023,26.831093,321.899445
1,10,12,241,-0.087888,-1.000336,-1.022751,-76.361526,47.268593,344.649445
1,10,13,261,-0.055662,-1.297700,-0.964645,-118.361526,62.893593,361.461945
1,10,14,281,0.010256,-1.576508,-0.884079,-124.424026,65.956093,347.774445
1,10,15,301,0.083987,-1.913911,-0.889450,-74.986526,53.831093,291.399445
1,10,16,321,0.170413,-2.382172,-0.945114,-47.986523,48.268593,198.149460
1,10,17,341,0.337405,-2.553559,-0.833298,-43.174023,59.456093,66.336952
1,10,18,361,0.451663,-2.254242,-0.715622,-0.424023,45.143593,-5.538047
1,10,19,381,0.455569,-1.946625,-0.727341,24.013477,27.018593,-47.788048
1,10,20,401,0.472170,-1.870942,-0.748337,41.888477,17.456093,-95.600548
1,10,21,421,0.508303,-1.743012,-0.745407,49.763477,16.456093,-147.225540
1,10,22,441,0.554202,-1.467133,-0.650681,50.388477,13.893594,-185.850540
1,10,23,461,0.605471,-1.160981,-0.579391,43.138477,3.143594,-197.413040
1,10,24,481,0.617678,-0.991547,-0.554489,26.075977,-9.981406,-191.475540
1,10,25,501,0.605959,-0.955414,-0.572556,16.513477,-21.043907,-189.850540
1,10,26,521,0.594729,-0.938813,-0.623825,27.263477,-28.043907,-214.788040
1,10,27,541,0.551272,-0.787446,-0.654587,55.575977,-34.231407,-248.725540
1,10,28,561,0.521487,-0.585786,-0.660446,77.325974,-43.856407,-267.350555
1,10,29,581,0.516604,-0.395356,-0.690720,80.388474,-58.856407,-268.538055
1,10,30,601,0.453127,-0.190766,-0.792282,76.388474,-66.231407,-261.600555
1,10,31,621,0.424807,0.030914,-0.985153,60.388477,-73.606407,-238.163040
1,10,32,641,0.382815,0.214019,-1.151169,24.700977,-55.981407,-207.975540
1,10,33,661,0.396487,0.390289,-1.113571,-10.236524,-33.481407,-172.225540
1,10,34,681,0.479983,0.417144,-1.008102,-30.736523,-18.793907,-124.975548
1,10,35,701,0.485842,0.396636,-0.985153,-27.174023,-6.481406,-99.725548
1,10,36,721,0.500491,0.362945,-0.950974,-28.236523,0.393594,-82.413048
1,10,37,741,0.509768,0.317047,-0.945602,1.075977,15.018594,-90.663048
1,10,38,761,0.490237,0.309722,-0.961227,39.700977,12.018594,-84.100548
1,10,39,781,0.474612,0.261871,-1.007614,38.200977,11.706094,-65.975548
1,10,40,801,0.462893,0.229644,-0.933395,13.700976,15.643594,-58.225548
1,10,41,821,0.470217,0.156402,-0.908981,3.325977,6.643594,-47.725548
1,10,42,841,0.415042,0.098297,-0.963669,4.325976,11.456094,-37.100548
1,10,43,861,0.647463,0.466461,-0.915817,18.950977,-19.856407,-23.413048
1,10,44,881,0.652346,0.955230,-0.931931,15.200976,-17.543907,43.899452
1,10,45,901,0.063967,-0.201508,-1.059372,-57.236523,76.643593,44.211952
1,10,46,921,0.594241,-0.326508,-0.761032,-34.549023,42.143593,16.461952
1,10,47,941,0.470217,-0.335297,-0.742477,19.638477,17.706093,-1.850547
1,10,48,961,0.392581,-0.155610,-0.837204,17.950977,7.706094,-4.038047
1,10,49,981,0.435549,0.011871,-0.823532,-10.174024,5.081094,1.211953
1,10,50,1001,0.431155,0.073394,-0.806442,6.575976,6.768594,-11.475547
1,10,51,1021,0.378909,-0.056977,-0.864059,25.138477,7.893594,-0.038047
1,10,52,1041,0.402346,-0.130707,-0.872849,14.325976,5.643594,-1.663047
1,10,53,1061,0.412600,-0.071625,-0.857224,13.200976,2.893594,-4.663047
1,10,54,1081,0.407717,-0.057953,-0.862595,14.325976,-1.981406,-1.600547
1,10,55,1101,0.407717,-0.072602,-0.882614,10.825976,-4.043906,0.524453
1,10,56,1121,0.404299,-0.087250,-0.903610,4.888476,-3.168906,1.086953
1,10,57,1141,0.406741,-0.081391,-0.917770,0.638477,-1.293906,2.211953
1,10,58,1161,0.410159,-0.077485,-0.899704,-3.174023,1.143594,2.586953
1,10,59,1181,0.414065,-0.089203,-0.881149,-2.424023,2.206094,0.711953
1,10,60,1201,0.415530,-0.080903,-0.872360,-0.424023,1.518594,-1.288047
1,10,61,1221,0.410647,-0.075532,-0.875290,0.450977,0.018594,-0.413047
1,10,62,1241,0.410159,-0.080414,-0.885056,1.888477,-0.231406,-0.413047
1,10,63,1261,0.406741,-0.074555,-0.888962,-0.799023,0.206094,-0.663047
1,10,64,1281,0.405276,-0.069672,-0.878708,0.075977,0.268594,-0.350547
1,10,65,1301,0.408206,-0.080414,-0.883102,1.575977,-0.106406,0.024453
1,10,66,1321,0.410647,-0.085786,-0.885056,1.450977,-0.543906,-0.413047
1,10,67,1341,0.406741,-0.071137,-0.888474,2.075977,-0.106406,-0.913047
1,10,68,1361,0.410647,-0.078950,-0.882126,-0.174023,0.081094,-0.663047
1,10,69,1381,0.410647,-0.089203,-0.888474,-0.486523,-0.981406,-1.038047
1,10,70,1401,0.408206,-0.083344,-0.902145,-1.549023,-0.106406,-1.163047
1,10,71,1421,0.407717,-0.077485,-0.896286,-2.299023,1.643594,-0.850547
1,10,72,1441,0.409670,-0.079438,-0.881638,-3.924023,1.768594,-0.475547
1,10,73,1461,0.407229,-0.075532,-0.875778,-2.799023,1.518594,-1.100547
1,10,74,1481,0.405276,-0.071625,-0.873337,-1.236523,0.831094,-0.725547
1,10,75,1501,0.406252,-0.080903,-0.875778,-0.299023,0.206094,-0.975547
1,10,76,1521,0.404788,-0.075043,-0.881149,-0.924023,-0.106406,-1.038047
1,10,77,1541,0.405276,-0.075532,-0.888962,-0.361523,0.581094,-1.163047
1,10,78,1561,0.406252,-0.074555,-0.881638,-2.049023,1.081094,-1.038047
1,10,79,1581,0.407717,-0.081391,-0.872360,-1.611523,0.518594,-0.913047
1,10,80,1601,0.407229,-0.077485,-0.879196,0.325977,-0.043906,-0.913047
1,10,81,1621,0.405276,-0.076020,-0.885056,0.013477,0.456094,-0.725547
1,10,82,1641,0.403811,-0.075532,-0.879196,-1.486523,0.456094,-0.475547
1,10,83,1661,0.403323,-0.077485,-0.875290,-1.986523,0.143594,-0.413047
1,10,84,1681,0.403811,-0.075043,-0.874313,-1.424023,-0.043906,-0.663047
1,10,85,1701,0.401370,-0.070161,-0.881149,-0.361523,0.581094,-0.788047
1,10,86,1721,0.404299,-0.075532,-0.874802,-0.736523,0.706094,-0.350547
1,10,87,1741,0.405764,-0.083344,-0.873825,0.263477,-0.106406,-0.663047
1,10,88,1761,0.403323,-0.069672,-0.883102,0.575977,0.331094,-0.475547
1,10,89,1781,0.404299,-0.078950,-0.876755,-0.549023,1.018594,-0.413047
1,10,90,1801,0.403323,-0.076508,-0.871872,-0.486523,0.831094,-0.850547
1,10,91,1821,0.402346,-0.076020,-0.872849,0.325977,0.143594,-0.538047
1,10,92,1841,0.403811,-0.078461,-0.874313,-0.486523,-0.293906,-0.538047
1,10,93,1861,0.402834,-0.075532,-0.878708,0.075977,-0.418906,-0.725547
1,10,94,1881,0.400881,-0.075532,-0.885544,-0.361523,0.581094,-0.663047
1,10,95,1901,0.402834,-0.074067,-0.872849,-1.299023,0.831094,-0.850547
1,10,96,1921,0.402834,-0.074555,-0.868942,0.888477,0.018594,-0.413047
1,10,97,1941,0.401858,-0.077485,-0.875778,1.638477,-0.293906,-0.288047
1,10,98,1961,0.401370,-0.075043,-0.879684,0.575977,-0.231406,-0.225547
1,10,99,1981,0.401858,-0.074067,-0.882614,0.200977,0.268594,0.024453
1,11,0,0,0.543459,1.432281,-0.955856,39.450977,-69.481407,65.461952
1,11,1,21,0.420901,1.333160,-1.217087,59.138477,-24.918907,126.336952
1,11,2,41,0.411135,1.052398,-1.057907,5.075976,-9.293906,179.024460
1,11,3,61,0.437502,0.718902,-0.952438,-8.299024,-2.918906,216.586960
1,11,4,81,0.366213,0.584625,-1.020309,-6.424024,-0.043906,246.586960
1,11,5,101,0.320803,0.508941,-1.126266,22.263477,9.956094,280.461945
1,11,6,121,0.205569,0.236480,-1.085251,23.200977,21.018593,319.836945
1,11,7,141,0.051760,-0.290375,-0.986130,8.325976,29.143593,333.524445
1,11,8,161,-0.009763,-0.720063,-0.987106,13.888476,42.581093,322.274445
1,11,9,181,-0.077146,-1.060883,-1.049606,-23.424023,67.518593,324.836945
1,11,10,201,-0.110349,-1.352387,-1.013962,-60.861523,76.643593,330.524445
1,11,11,221,-0.012693,-1.570161,-0.933395,-60.486523,81.518593,317.524445
1,11,12,241,0.091311,-1.781586,-0.796188,-31.361523,72.518593,278.211945
1,11,13,261,0.212405,-2.068696,-0.715134,14.950976,51.706093,223.524460
1,11,14,281,0.364260,-2.310395,-0.689743,39.263477,44.706093,142.274460
1,11,15,301,0.485354,-2.386567,-0.657028,38.013477,49.706093,30.649452
1,11,16,321,0.544436,-2.230805,-0.599899,21.138477,40.331093,-29.788048
1,11,17,341,0.542971,-1.950043,-0.585251,10.888476,22.018593,-70.100548
1,11,18,361,0.554690,-1.768891,-0.610153,15.388476,9.581094,-117.038048
1,11,19,381,0.592288,-1.622407,-0.607224,19.825977,3.456094,-160.225540
1,11,20,401,0.593752,-1.414887,-0.572067,25.638477,-6.543906,-194.663040
1,11,21,421,0.615237,-1.181977,-0.541306,13.200976,-19.918907,-208.975540
1,11,22,441,0.623538,-1.030610,-0.526169,1.950977,-34.731407,-214.725540
1,11,23,461,0.615725,-0.929536,-0.556442,7.950976,-49.481407,-226.913040
1,11,24,481,0.588381,-0.826996,-0.647263,14.575976,-61.731407,-244.163040
1,11,25,501,0.511233,-0.688325,-0.721970,13.075976,-66.856407,-260.350555
1,11,26,521,0.472170,-0.465668,-0.747849,14.013476,-67.918907,-263.475555
1,11,27,541,0.489749,-0.240571,-0.790329,13.450976,-67.856407,-245.788040
1,11,28,561,0.482424,-0.085786,-0.892868,25.700977,-62.918907,-223.475540
1,11,29,581,0.449221,-0.015473,-1.028122,41.013477,-55.918907,-198.975540
1,11,30,601,0.437014,0.074859,-1.114059,25.325977,-41.106407,-169.538040
1,11,31,621,0.427249,0.102203,-1.063278,-12.049024,-17.793907,-142.288040
1,11,32,641,0.444338,0.097808,-0.938766,-35.861523,-6.606406,-124.350548
1,11,33,661,0.477053,0.171539,-0.878708,-21.424023,-6.668906,-116.350548
1,11,34,681,0.486819,0.250152,-0.839645,-22.174023,-9.356406,-99.038048
1,11,35,701,0.468264,0.228668,-0.845016,-10.174024,-16.668907,-88.600548
1,11,36,721,0.425784,0.246734,-0.909470,21.638477,-15.793906,-91.538048
1,11,37,741,0.408206,0.351226,-0.959763,41.075977,-10.606406,-89.788048
1,11,38,761,0.461428,0.430328,-0.991501,41.013477,1.268594,-79.600548
1,11,39,781,0.447268,0.346343,-1.012497,19.888477,8.331094,-56.100548
1,11,40,801,0.406252,0.161285,-1.039841,-5.986524,15.456094,-34.663048
1,11,41,821,0.671877,0.605621,-0.954391,18.575977,-26.293907,-34.413048
1,11,42,841,0.677737,1.089019,-0.902634,35.450977,-36.106407,37.336952
1,11,43,861,-0.022947,-0.293793,-1.165817,-85.049026,88.081093,61.586952
1,11,44,881,0.644045,-0.337739,-0.798141,-78.674026,41.018593,13.461953
1,11,45,901,0.493655,-0.306489,-0.655563,-16.611523,20.456093,8.336953
1,11,46,921,0.426272,-0.151215,-0.741501,13.575976,2.393594,-8.725547
1,11,47,941,0.444827,0.022613,-0.776169,12.388476,-1.543906,-8.538047
1,11,48,961,0.379885,0.009918,-0.845505,6.575976,-5.106406,4.586953
1,11,49,981,0.387209,-0.103364,-0.852341,11.763476,6.831094,-8.288047
1,11,50,1001,0.384768,-0.106293,-0.862106,19.513477,0.143594,-6.475547
1,11,51,1021,0.399905,-0.058442,-0.877243,15.263476,1.393594,-8.100547
1,11,52,1041,0.397463,-0.048188,-0.878220,13.200976,1.331094,-5.038047
1,11,53,1061,0.383303,-0.074067,-0.890915,7.013476,0.331094,-1.350547
1,11,54,1081,0.389651,-0.076020,-0.900192,-3.486523,0.518594,1.961953
1,11,55,1101,0.403323,-0.071137,-0.883591,-7.549024,2.706094,3.711953
1,11,56,1121,0.410159,-0.077973,-0.861618,-7.486524,2.581094,4.086953
1,11,57,1141,0.414553,-0.085786,-0.854782,-6.299024,1.768594,2.461953
1,11,58,1161,0.418948,-0.074067,-0.851364,-7.174024,1.456094,1.149453
1,11,59,1181,0.412600,-0.076020,-0.846481,-5.736524,1.081094,0.586953
1,11,60,1201,0.408694,-0.076996,-0.851852,-0.111523,1.518594,-0.975547
1,11,61,1221,0.407717,-0.073090,-0.845993,0.575977,1.518594,-1.100547
1,11,62,1241,0.406252,-0.078461,-0.845993,3.013477,0.331094,-0.413047
1,11,63,1261,0.404299,-0.076020,-0.850876,6.388476,-0.356406,-0.413047
1,11,64,1281,0.405276,-0.076508,-0.856735,5.138476,-1.418906,-0.475547
1,11,65,1301,0.402346,-0.072602,-0.870407,2.075977,-1.793906,-0.850547
1,11,66,1321,0.403323,-0.071625,-0.869919,-0.361523,-0.293906,-0.663047
1,11,67,1341,0.404299,-0.073578,-0.859665,-0.674023,-0.418906,-0.350547
1,11,68,1361,0.403811,-0.077485,-0.864548,1.263477,-0.356406,-0.350547
1,11,69,1381,0.404299,-0.079438,-0.867966,1.450977,0.393594,-0.475547
1,11,70,1401,0.407717,-0.079926,-0.867966,1.388477,0.768594,-0.850547
1,11,71,1421,0.405276,-0.080903,-0.870895,0.763477,1.206094,-1.350547
1,11,72,1441,0.404788,-0.074067,-0.865524,-0.486523,1.581094,-0.975547
1,11,73,1461,0.402346,-0.073578,-0.860641,-1.049023,1.456094,-0.600547
1,11,74,1481,0.401858,-0.072602,-0.854782,-1.174023,0.768594,0.086953
1,11,75,1501,0.402346,-0.073578,-0.854294,1.075977,-0.168906,0.024453
1,11,76,1521,0.402346,-0.076996,-0.861618,1.388477,-0.481406,-0.475547
1,11,77,1541,0.401370,-0.076020,-0.870895,-1.424023,0.018594,-0.788047
1,11,78,1561,0.399905,-0.075532,-0.866501,-0.611523,1.081094,-1.225547
1,11,79,1581,0.404299,-0.074067,-0.861130,-0.361523,1.143594,-1.538047
1,11,80,1601,0.401858,-0.072114,-0.858200,-0.611523,0.831094,-0.663047
1,11,81,1621,0.403323,-0.075532,-0.849411,0.138477,-0.418906,-0.725547
1,11,82,1641,0.401858,-0.070161,-0.864059,0.575977,-1.043906,-0.038047
1,11,83,1661,0.397952,-0.077973,-0.866501,0.700977,-0.418906,0.024453
1,11,84,1681,0.398440,-0.075043,-0.864059,-0.236523,-0.356406,0.149453
1,11,85,1701,0.402834,-0.076508,-0.862595,0.075977,0.018594,0.336953
1,11,86,1721,0.404299,-0.073090,-0.857224,0.888477,-0.231406,-0.163047
1,11,87,1741,0.404788,-0.076996,-0.863083,0.763477,-0.731406,-0.100547
1,11,88,1761,0.403323,-0.076508,-0.865524,-0.111523,-0.606406,-0.100547
1,11,89,1781,0.402346,-0.076020,-0.866013,0.013477,-0.731406,0.086953
1,11,90,1801,0.401370,-0.075043,-0.864059,-0.424023,-0.793906,0.149453
1,11,91,1821,0.400881,-0.075532,-0.864548,-0.736523,-0.668906,0.086953
1,11,92,1841,0.399417,-0.071625,-0.864059,0.075977,-0.231406,-0.413047
1,11,93,1861,0.404299,-0.078950,-0.863571,-0.486523,0.018594,-0.538047
1,11,94,1881,0.401858,-0.073578,-0.864548,0.325977,0.018594,-0.725547
1,11,95,1901,0.400881,-0.073090,-0.861618,0.138477,0.143594,-0.413047
1,11,96,1921,0.401370,-0.077973,-0.862595,0.450977,-0.293906,-0.413047
1,11,97,1941,0.400393,-0.074067,-0.863083,0.075977,-0.356406,-0.350547
1,11,98,1961,0.402346,-0.076508,-0.869919,0.075977,0.018594,-0.350547
1,11,99,1981,0.402346,-0.074555,-0.867477,-2.674023,0.393594,-0.350547
1,12,0,0,0.613772,1.005523,-0.609177,-22.799023,-52.231407,-15.288047
1,12,1,21,0.610354,1.668121,-0.956345,61.575977,-64.356407,54.899452
1,12,2,41,0.410647,1.638336,-1.370895,101.950974,-17.856407,139.211960
1,12,3,61,0.291506,1.287750,-1.306442,43.138477,17.143593,188.399460
1,12,4,81,0.381350,0.847320,-0.997360,1.200977,22.768593,231.024460
1,12,5,101,0.354495,0.471832,-0.922653,6.763476,21.831093,265.836945
1,12,6,121,0.246584,0.169097,-0.908493,1.388477,15.831094,281.649445
1,12,7,141,0.209475,-0.163422,-0.933884,19.513477,19.706093,291.461945
1,12,8,161,0.090334,-0.458344,-0.963181,18.013477,26.393593,299.711945
1,12,9,181,0.004397,-0.818207,-0.956833,-3.111523,44.768593,307.774445
1,12,10,201,-0.041501,-1.179047,-0.981735,-57.424023,76.081093,324.461945
1,12,11,221,-0.027341,-1.461274,-0.946579,-116.611526,83.143593,329.024445
1,12,12,241,0.060549,-1.813813,-0.856735,-134.424026,79.143593,297.274445
1,12,13,261,0.190432,-2.104828,-0.797165,-97.799026,63.081093,235.336960
1,12,14,281,0.341799,-2.299653,-0.787888,-49.111523,43.768593,150.211960
1,12,15,301,0.437502,-2.270844,-0.782028,-12.924024,46.018593,48.149452
1,12,16,321,0.479495,-2.075043,-0.762497,28.950977,45.331093,-33.350548
1,12,17,341,0.514651,-1.855805,-0.751755,49.450977,31.643593,-73.600548
1,12,18,361,0.505862,-1.726899,-0.733200,51.200977,22.706093,-120.850548
1,12,19,381,0.550295,-1.560395,-0.664841,39.013477,21.956093,-161.038040
1,12,20,401,0.583987,-1.339692,-0.582321,23.450977,16.081093,-197.975540
1,12,21,421,0.591799,-1.084809,-0.506638,14.075976,2.206094,-222.600540
1,12,22,441,0.605471,-0.869477,-0.482224,14.075976,-15.918906,-232.663040
1,12,23,461,0.600100,-0.729340,-0.498337,30.075977,-34.168907,-240.288040
1,12,24,481,0.581545,-0.619965,-0.561813,58.950977,-49.293907,-249.725540
1,12,25,501,0.529299,-0.452485,-0.660446,84.138474,-59.731407,-258.538055
1,12,26,521,0.515627,-0.197602,-0.705856,81.200974,-67.606407,-255.788040
1,12,27,541,0.529788,-0.025727,-0.838669,67.075974,-65.106407,-230.788040
1,12,28,561,0.476077,0.103668,-1.024216,40.825977,-59.981407,-190.725540
1,12,29,581,0.436038,0.165679,-1.129684,8.575976,-47.293907,-159.600540
1,12,30,601,0.417971,0.306793,-1.111130,2.388477,-17.231407,-138.538040
1,12,31,621,0.531252,0.505523,-0.940720,-28.424023,-4.543906,-104.975548
1,12,32,641,0.592288,0.384429,-0.792770,-42.299023,-9.856406,-68.100548
1,12,33,661,0.550295,0.227203,-0.848434,-4.236524,-13.293906,-58.663048
1,12,34,681,0.488284,0.166168,-0.957809,13.200976,-5.418906,-57.100548
1,12,35,701,0.470217,0.112457,-0.995895,14.638476,5.706094,-52.538048
1,12,36,721,0.462405,0.088043,-0.941696,11.513476,15.268594,-45.913048
1,12,37,741,0.467288,0.104156,-0.845505,6.450976,12.143594,-47.850548
1,12,38,761,0.487307,0.114898,-0.818161,5.075976,4.768594,-42.538048
1,12,39,781,0.453616,0.094390,-0.872849,3.450977,1.268594,-33.288048
1,12,40,801,0.413088,0.054839,-0.916306,0.138477,4.518594,-27.600548
1,12,41,821,0.401858,0.032379,-0.885544,2.950977,9.518594,-24.600548
1,12,42,841,0.415530,-0.006196,-0.853806,15.013476,11.768594,-24.850548
1,12,43,861,0.394534,-0.068207,-0.862595,17.200977,12.768594,-21.850548
1,12,44,881,0.373049,-0.130219,-0.867477,11.263476,19.206093,-25.413048
1,12,45,901,0.433108,-0.064789,-0.835739,6.825976,18.143593,-29.413048
1,12,46,921,0.650881,0.794097,-0.753708,16.450977,-40.356407,3.899453
1,12,47,941,0.195803,0.132476,-0.947556,-30.736523,31.643593,50.524452
1,12,48,961,0.405276,-0.324067,-0.835251,-19.111523,29.206093,12.524453
1,12,49,981,0.468264,-0.273774,-0.756149,9.575976,8.331094,-4.725547
1,12,50,1001,0.400881,-0.155121,-0.821091,11.513476,-5.043906,-12.975547
1,12,51,1021,0.396487,0.010406,-0.863571,20.638477,-4.668906,-12.725547
1,12,52,1041,0.373538,0.005035,-0.903122,18.450977,0.081094,-3.350547
1,12,53,1061,0.386233,-0.087739,-0.868942,6.325976,2.643594,-1.163047
1,12,54,1081,0.375002,-0.087739,-0.854782,12.450976,-0.918906,-4.413047
1,12,55,1101,0.373538,-0.059907,-0.893845,12.013476,-1.418906,-1.725547
1,12,56,1121,0.390139,-0.051606,-0.900681,3.700977,1.018594,0.649453
1,12,57,1141,0.394045,-0.075532,-0.885544,-0.861523,3.268594,1.461953
1,12,58,1161,0.396975,-0.077973,-0.877243,-2.986523,2.831094,1.524453
1,12,59,1181,0.394534,-0.066743,-0.862106,-3.049023,2.768594,0.711953
1,12,60,1201,0.399417,-0.062836,-0.850388,-3.549023,0.768594,0.149453
1,12,61,1221,0.393069,-0.069184,-0.860153,1.450977,-0.293906,-0.288047
1,12,62,1241,0.393069,-0.075532,-0.869919,3.325977,-1.168906,-0.850547
1,12,63,1261,0.388674,-0.068696,-0.883591,2.888477,-0.731406,-0.975547
1,12,64,1281,0.386233,-0.066743,-0.881149,2.388477,0.893594,-1.225547
1,12,65,1301,0.380374,-0.066743,-0.876755,0.450977,1.393594,-0.600547
1,12,66,1321,0.389163,-0.065766,-0.871384,-2.736523,1.081094,0.211953
1,12,67,1341,0.387698,-0.070161,-0.862106,-1.611523,0.643594,-0.225547
1,12,68,1361,0.391116,-0.067719,-0.865524,1.513477,-0.231406,-0.038047
1,12,69,1381,0.392092,-0.073578,-0.869431,1.763477,-0.981406,-0.288047
1,12,70,1401,0.388186,-0.067719,-0.879196,2.200977,-0.793906,-0.475547
1,12,71,1421,0.389163,-0.067231,-0.880661,1.763477,0.018594,-0.100547
1,12,72,1441,0.387698,-0.071137,-0.879196,1.138477,0.331094,-0.350547
1,12,73,1461,0.389651,-0.070161,-0.876755,-1.236523,0.206094,-0.288047
1,12,74,1481,0.390139,-0.071625,-0.874313,-3.111523,0.081094,-0.288047
1,12,75,1501,0.392581,-0.067231,-0.871384,-0.549023,-0.231406,-0.350547
1,12,76,1521,0.388186,-0.068207,-0.876755,-1.174023,0.081094,0.024453
1,12,77,1541,0.389163,-0.068207,-0.870407,-0.674023,-0.043906,0.274453
1,12,78,1561,0.389163,-0.073090,-0.867966,-0.424023,-0.543906,0.586953
1,12,79,1581,0.389163,-0.067719,-0.873337,-0.299023,-1.106406,0.211953
1,12,80,1601,0.389163,-0.071137,-0.881638,-0.861523,-0.293906,0.149453
1,12,81,1621,0.387209,-0.071137,-0.875778,-2.486523,0.268594,-0.225547
1,12,82,1641,0.386233,-0.067719,-0.873825,-3.611523,0.893594,-0.413047
1,12,83,1661,0.387209,-0.065278,-0.858688,-2.174023,0.706094,-0.413047
1,12,84,1681,0.386721,-0.067719,-0.858688,-0.486523,-0.856406,-0.350547
1,12,85,1701,0.386721,-0.064301,-0.866501,1.325977,-0.981406,-0.413047
1,12,86,1721,0.388186,-0.067719,-0.867477,2.575977,-1.043906,-0.225547
1,12,87,1741,0.389651,-0.075532,-0.870407,2.950977,-1.356406,-0.475547
1,12,88,1761,0.388186,-0.066743,-0.875290,2.825977,-1.231406,-0.413047
1,12,89,1781,0.389163,-0.071137,-0.877243,2.013477,-1.418906,-0.163047
1,12,90,1801,0.386233,-0.065766,-0.885544,0.638477,-0.668906,-0.225547
1,12,91,1821,0.388186,-0.070161,-0.877731,-1.361523,0.456094,-0.475547
1,12,92,1841,0.389651,-0.070161,-0.868454,-1.174023,-0.106406,-0.288047
1,12,93,1861,0.388186,-0.072114,-0.871384,0.075977,-0.668906,-0.038047
1,12,94,1881,0.385745,-0.067719,-0.877243,0.950977,-0.293906,-0.100547
1,12,95,1901,0.387698,-0.068207,-0.870895,0.138477,-0.231406,-0.413047
1,12,96,1921,0.388186,-0.069672,-0.872360,0.575977,-0.731406,-0.225547
1,12,97,1941,0.387698,-0.068696,-0.874313,0.075977,-0.856406,-0.288047
1,12,98,1961,0.387698,-0.069184,-0.877731,0.200977,-0.606406,-0.288047
1,12,99,1981,0.386721,-0.071625,-0.876755,-0.486523,-0.543906,-0.288047
1,13,0,0,0.526858,1.399078,-1.102341,57.513477,-38.106407,137.586960
1,13,1,21,0.387209,1.144683,-1.231247,23.638477,-4.293906,194.961960
1,13,2,41,0.422854,0.636382,-1.030563,-49.736523,11.706094,231.524460
1,13,3,61,0.432131,0.264312,-0.847458,-69.049026,4.643594,252.274460
1,13,4,81,0.429202,0.062164,-0.811813,-43.486523,-17.543907,254.149460
1,13,5,101,0.395022,-0.112641,-0.866501,1.700977,-28.918907,249.836960
1,13,6,121,0.294436,-0.261567,-0.930466,27.575977,-26.356407,244.711960
1,13,7,141,0.251956,-0.468598,-1.006638,42.200977,-6.793906,251.086960
1,13,8,161,0.171389,-0.750825,-1.043259,12.388476,18.018593,264.899445
1,13,9,181,0.149417,-1.023774,-1.012497,-30.486523,38.706093,271.649445
1,13,10,201,0.236331,-1.230317,-0.958298,-59.049023,46.393593,257.961945
1,13,11,221,0.268069,-1.395844,-0.948532,-67.986526,49.018593,247.149460
1,13,12,241,0.281252,-1.572114,-0.936813,-44.611523,46.893593,232.774460
1,13,13,261,0.364749,-1.750825,-0.894821,-11.111524,43.393593,201.524460
1,13,14,281,0.471194,-1.938813,-0.847946,20.138477,44.643593,146.149460
1,13,15,301,0.546877,-2.039399,-0.794724,52.263477,46.706093,69.461952
1,13,16,321,0.602542,-2.035981,-0.738571,61.263477,41.956093,3.711953
1,13,17,341,0.624514,-1.991547,-0.712692,41.388477,23.268593,-29.038048
1,13,18,361,0.629397,-1.846528,-0.717087,8.013476,19.956093,-81.788048
1,13,19,381,0.644534,-1.646332,-0.669235,-1.674023,21.518593,-137.600540
1,13,20,401,0.658206,-1.425141,-0.612106,8.263476,14.018594,-183.475540
1,13,21,421,0.634768,-1.189301,-0.582809,20.950977,2.206094,-207.288040
1,13,22,441,0.646487,-0.991547,-0.548630,13.013476,-10.106406,-202.413040
1,13,23,461,0.662600,-0.907563,-0.546188,2.075977,-25.731407,-205.100540
1,13,24,481,0.636721,-0.781586,-0.601852,28.450977,-40.168907,-220.725540
1,13,25,501,0.602542,-0.648774,-0.722946,52.575977,-47.043907,-226.975540
1,13,26,521,0.578127,-0.509125,-0.810837,60.325977,-47.168907,-227.600540
1,13,27,541,0.558108,-0.366059,-0.838181,51.700977,-43.043907,-218.788040
1,13,28,561,0.549807,-0.207368,-0.862106,39.200977,-37.481407,-199.288040
1,13,29,581,0.551272,-0.096528,-0.856247,4.700976,-31.106407,-174.475540
1,13,30,601,0.544924,-0.079438,-0.877731,-15.611524,-41.356407,-152.913040
1,13,31,621,0.529788,-0.009614,-0.887985,-26.111523,-35.606407,-147.100540
1,13,32,641,0.532717,0.105132,-0.865524,-13.299024,-33.293907,-140.975540
1,13,33,661,0.544436,0.265289,-0.874313,13.513476,-31.043907,-128.288040
1,13,34,681,0.540042,0.348785,-0.913864,17.513477,-25.106407,-108.038048
1,13,35,701,0.525393,0.317535,-0.974899,17.888477,-15.793906,-89.225548
1,13,36,721,0.506350,0.284332,-1.026169,23.388477,-5.043906,-73.038048
1,13,37,741,0.520999,0.196929,-1.016403,15.825976,5.143594,-61.850548
1,13,38,761,0.495608,0.116363,-1.006149,7.825976,11.206094,-57.163048
1,13,39,781,0.500002,0.107086,-0.973434,-1.861523,14.268594,-46.725548
1,13,40,801,0.498538,0.081695,-0.918747,-11.424024,17.456093,-36.288048
1,13,41,821,0.506838,0.026519,-0.867477,-10.799024,15.143594,-29.850548
1,13,42,841,0.479983,-0.029633,-0.842575,-3.674023,8.456094,-29.600548
1,13,43,861,0.454592,-0.015961,-0.862595,10.325976,5.268594,-33.038048
1,13,44,881,0.437502,0.046050,-0.900681,14.013476,7.831094,-29.225548
1,13,45,901,0.422366,0.020172,-0.874313,-2.924023,11.393594,-19.288048
1,13,46,921,0.414553,-0.047211,-0.831833,-10.486524,9.081094,-13.538047
1,13,47,941,0.408694,-0.064789,-0.844040,-3.611523,5.206094,-13.350547
1,13,48,961,0.393557,-0.068696,-0.861130,0.200977,2.956094,-13.850547
1,13,49,981,0.407229,-0.033539,-0.863083,1.638477,2.018594,-12.600547
1,13,50,1001,0.533206,0.328765,-0.793747,-3.424023,-17.231407,11.399453
1,13,51,1021,0.398928,0.319976,-0.901169,-0.674023,6.081094,11.774453
1,13,52,1041,0.375979,-0.162934,-0.887497,-6.236524,16.081093,18.774452
1,13,53,1061,0.420413,-0.276703,-0.819626,-0.861523,7.706094,4.961953
1,13,54,1081,0.409182,-0.219575,-0.825974,6.638476,0.456094,-13.038047
1,13,55,1101,0.404788,-0.019868,-0.875290,3.013477,-4.793906,-12.725547
1,13,56,1121,0.395022,0.031402,-0.908981,2.263477,-0.668906,-3.975547
1,13,57,1141,0.376467,-0.068696,-0.913864,-2.299023,6.206094,0.211953
1,13,58,1161,0.385256,-0.098969,-0.876266,-6.424024,8.206094,0.524453
1,13,59,1181,0.400393,-0.092621,-0.859177,-5.799024,8.456094,0.024453
1,13,60,1201,0.395999,-0.069672,-0.855270,-0.486523,7.956094,-2.600547
1,13,61,1221,0.396975,-0.045258,-0.855270,0.388477,7.393594,-1.038047
1,13,62,1241,0.396975,-0.067719,-0.842087,-0.674023,5.768594,1.211953
1,13,63,1261,0.396975,-0.088227,-0.834274,-0.611523,3.206094,1.086953
1,13,64,1281,0.404788,-0.073578,-0.839645,-1.049023,0.956094,1.149453
1,13,65,1301,0.400393,-0.070649,-0.865036,2.200977,0.831094,1.649453
1,13,66,1321,0.410647,-0.076996,-0.873337,-1.049023,2.456094,2.024453
1,13,67,1341,0.411135,-0.085297,-0.868942,-3.674023,4.331094,1.024453
1,13,68,1361,0.410159,-0.074555,-0.854294,-5.986524,5.581094,-1.600547
1,13,69,1381,0.407229,-0.063325,-0.845505,-6.049024,5.331094,-0.850547
1,13,70,1401,0.405276,-0.085786,-0.834274,-5.049024,4.393594,0.086953
1,13,71,1421,0.402834,-0.075532,-0.822556,-3.924023,2.206094,-0.788047
1,13,72,1441,0.395022,-0.067719,-0.828903,-0.236523,1.956094,-3.725547
1,13,73,1461,0.387209,-0.068207,-0.838669,1.325977,1.331094,-3.100547
1,13,74,1481,0.393557,-0.064301,-0.842087,1.325977,0.893594,-1.850547
1,13,75,1501,0.392092,-0.064789,-0.837692,-0.799023,0.768594,-1.163047
1,13,76,1521,0.395999,-0.072114,-0.825485,-0.736523,-0.793906,-0.600547
1,13,77,1541,0.393069,-0.074555,-0.837692,1.825977,-2.418906,-1.038047
1,13,78,1561,0.387209,-0.067719,-0.851852,1.825977,-2.418906,0.211953
1,13,79,1581,0.401370,-0.075043,-0.848434,-0.111523,-2.168906,0.899453
1,13,80,1601,0.402834,-0.072602,-0.843063,0.638477,-2.356406,0.274453
1,13,81,1621,0.403323,-0.075043,-0.845993,-0.486523,-2.793906,0.274453
1,13,82,1641,0.398928,-0.081879,-0.850876,-1.799023,-2.981406,0.024453
1,13,83,1661,0.396487,-0.074555,-0.851852,-0.049023,-2.481406,-0.038047
1,13,84,1681,0.395999,-0.074067,-0.848923,-0.674023,-1.918906,0.086953
1,13,85,1701,0.395510,-0.071137,-0.845016,-0.861523,-1.481406,-0.663047
1,13,86,1721,0.396975,-0.070649,-0.840134,-0.611523,-1.793906,-0.663047
1,13,87,1741,0.402346,-0.067719,-0.843552,0.638477,-2.418906,-1.225547
1,13,88,1761,0.403323,-0.061371,-0.842575,0.075977,-3.106406,-0.663047
1,13,89,1781,0.405276,-0.071625,-0.843552,1.013477,-3.731406,-0.600547
1,13,90,1801,0.400881,-0.078461,-0.852341,1.763477,-3.981406,-1.225547
1,13,91,1821,0.406252,-0.072114,-0.852341,1.075977,-3.606406,-3.475547
1,13,92,1841,0.384280,-0.071625,-0.836716,1.325977,-2.731406,-5.538047
1,13,93,1861,0.373538,-0.095551,-0.854782,5.700976,-3.606406,-4.850547
1,13,94,1881,0.384768,-0.052582,-0.878220,7.013476,-2.418906,-6.100547
1,13,95,1901,0.334963,-0.091157,-0.918259,1.138477,3.518594,-0.413047
1,13,96,1921,0.396487,-0.082368,-0.898239,-2.611523,6.831094,-1.538047
1,13,97,1941,0.392581,-0.051118,-0.874313,-7.174024,11.268594,1.774453
1,13,98,1961,0.403811,-0.089203,-0.848434,-8.861524,13.143594,1.899453
1,13,99,1981,0.409182,-0.050141,-0.827438,-6.924024,11.206094,1.336953
1,14,0,0,0.381838,0.042632,-0.752243,-11.361524,-4.543906,-9.975547
1,14,1,21,0.472170,0.227203,-0.610641,-31.174023,-16.793907,-25.350548
1,14,2,41,0.553713,0.859039,-0.531540,10.263476,-62.543907,-36.475548
1,14,3,61,0.580081,1.634429,-0.721481,57.513477,-78.856407,5.649453
1,14,4,81,0.562014,1.680328,-0.929001,53.013477,-65.356407,86.149452
1,14,5,101,0.301760,1.413238,-0.977829,53.388477,-48.293907,156.274460
1,14,6,121,0.272463,1.251617,-0.979782,63.013477,-32.793907,191.399460
1,14,7,141,0.222170,1.059234,-1.115036,64.013474,-21.231407,240.024460
1,14,8,161,0.100100,0.631011,-1.182419,62.888477,3.518594,298.649445
1,14,9,181,-0.055662,0.106597,-1.124802,28.513477,27.643593,350.461945
1,14,10,201,-0.215818,-0.440766,-1.089645,-16.049023,43.518593,370.899445
1,14,11,221,-0.208005,-0.773286,-1.065720,-59.486523,45.581093,360.836945
1,14,12,241,-0.161130,-0.985200,-1.094040,-77.924026,48.768593,366.149445
1,14,13,261,-0.150388,-1.214203,-1.076950,-74.924026,56.831093,358.211945
1,14,14,281,-0.059080,-1.391938,-0.997360,-35.924023,54.831093,314.399445
1,14,15,301,0.016604,-1.628754,-0.946091,34.575977,35.643593,278.399445
1,14,16,321,0.058108,-2.002778,-1.011520,75.075974,31.643593,227.774460
1,14,17,341,0.167971,-2.370453,-1.039841,71.450974,54.768593,133.211960
1,14,18,361,0.273928,-2.551606,-0.966110,29.700977,71.956093,45.711952
1,14,19,381,0.403811,-2.469574,-0.802536,-23.174023,57.206093,21.899452
1,14,20,401,0.438479,-2.212250,-0.690720,-34.174023,56.331093,-24.475548
1,14,21,421,0.479495,-2.033051,-0.571579,5.575976,42.206093,-90.913048
1,14,22,441,0.511721,-1.834321,-0.537888,47.638477,20.331093,-152.038040
1,14,23,461,0.504885,-1.587739,-0.558884,68.013474,1.706094,-203.288040
1,14,24,481,0.509280,-1.362153,-0.598434,59.825977,-10.231406,-224.100540
1,14,25,501,0.500491,-1.245453,-0.597946,32.638477,-18.356407,-231.163040
1,14,26,521,0.486331,-1.153657,-0.594528,20.138477,-30.793907,-249.225540
1,14,27,541,0.419924,-1.021821,-0.637497,34.575977,-43.731407,-278.163055
1,14,28,561,0.373538,-0.847016,-0.720993,46.700977,-53.793907,-293.788055
1,14,29,581,0.301272,-0.639496,-0.701950,39.013477,-65.356407,-324.163055
1,14,30,601,0.252444,-0.301606,-0.655563,31.263477,-77.981407,-344.225555
1,14,31,621,0.272952,0.285797,-0.711227,21.888477,-90.606407,-321.475555
1,14,32,641,0.308596,0.735992,-0.928513,6.263476,-89.606407,-248.975540
1,14,33,661,0.312991,0.882476,-1.249313,-8.674024,-72.856407,-173.413040
1,14,34,681,0.310549,0.805328,-1.301071,-50.049023,-18.793907,-127.663048
1,14,35,701,0.388186,0.751129,-1.103317,-61.049023,11.143594,-101.663048
1,14,36,721,0.479983,0.730132,-0.971481,-28.049023,13.581094,-82.975548
1,14,37,741,0.480471,0.597808,-0.968063,-20.924023,16.768593,-55.225548
1,14,38,761,0.472659,0.398589,-0.942673,-19.424023,30.268593,-46.350548
1,14,39,781,0.436038,0.149566,-0.915329,-12.424024,23.893593,-27.038048
1,14,40,801,0.426760,-0.001313,-0.872360,-5.049024,25.081093,-31.663048
1,14,41,821,0.385256,-0.088227,-0.846970,-3.361523,21.893593,-36.663048
1,14,42,841,0.535159,0.160308,-0.795700,20.263477,2.018594,-41.850548
1,14,43,861,0.738284,1.219879,-0.703415,97.950974,-72.606407,27.211952
1,14,44,881,-0.076658,-0.085786,-1.167282,-43.986523,69.956093,58.211952
1,14,45,901,0.527346,-0.386078,-0.818649,-68.236526,47.643593,-2.850547
1,14,46,921,0.478030,-0.251313,-0.689255,8.075976,25.643593,-15.225547
1,14,47,941,0.395510,-0.034516,-0.814255,7.888476,0.893594,-3.788047
1,14,48,961,0.406252,-0.008637,-0.842575,-4.611524,7.956094,3.961953
1,14,49,981,0.395022,-0.064301,-0.839157,1.388477,8.393594,8.274453
1,14,50,1001,0.417483,-0.106782,-0.820114,1.325977,5.081094,8.711953
1,14,51,1021,0.426760,-0.073578,-0.817673,6.013476,2.206094,4.211953
1,14,52,1041,0.413577,-0.081879,-0.844528,3.325977,1.581094,4.649453
1,14,53,1061,0.425295,-0.084321,-0.829391,2.200977,-0.231406,4.649453
1,14,54,1081,0.404788,-0.080903,-0.832809,1.513477,-2.543906,6.336953
1,14,55,1101,0.403323,-0.071137,-0.832321,2.450977,2.893594,-2.725547
1,14,56,1121,0.409182,-0.052094,-0.820602,7.513476,3.393594,-2.038047
1,14,57,1141,0.395022,-0.068207,-0.823044,8.263476,0.893594,1.961953
1,14,58,1161,0.401858,-0.080414,-0.824020,9.700976,-3.856406,5.274453
1,14,59,1181,0.410647,-0.061860,-0.832321,10.575976,-6.418906,9.024453
1,14,60,1201,0.405276,-0.081879,-0.854782,10.888476,-6.918906,14.211953
1,14,61,1221,0.418948,-0.080414,-0.869431,10.450976,-4.231406,13.649453
1,14,62,1241,0.415042,-0.082368,-0.882614,6.700976,0.143594,10.149453
1,14,63,1261,0.423831,-0.095063,-0.877243,3.888477,2.768594,7.149453
1,14,64,1281,0.430667,-0.094575,-0.876755,1.638477,4.393594,6.399453
1,14,65,1301,0.443362,-0.099946,-0.864548,1.825977,3.706094,5.024453
1,14,66,1321,0.444338,-0.094575,-0.861130,4.013476,0.268594,6.211953
1,14,67,1341,0.448245,-0.103852,-0.863083,5.950976,-0.168906,6.649453
1,14,68,1361,0.448245,-0.088227,-0.864548,3.575977,-0.293906,7.899453
1,14,69,1381,0.440920,-0.097504,-0.869919,3.388477,0.706094,7.586953
1,14,70,1401,0.452639,-0.098969,-0.860153,5.825976,-0.168906,7.836953
1,14,71,1421,0.453127,-0.097993,-0.860153,6.450976,-0.606406,6.899453
1,14,72,1441,0.456545,-0.097016,-0.858688,11.075976,-0.543906,1.211953
1,14,73,1461,0.448245,-0.100922,-0.867477,13.825976,-2.231406,2.899453
1,14,74,1481,0.449709,-0.097504,-0.879684,15.138476,-2.856406,2.086953
1,14,75,1501,0.447268,-0.093110,-0.884079,13.013476,-2.293906,2.024453
1,14,76,1521,0.445803,-0.094086,-0.884567,10.075976,-1.543906,2.336953
1,14,77,1541,0.448245,-0.095551,-0.892868,12.263476,-1.481406,0.211953
1,14,78,1561,0.440920,-0.091645,-0.906052,12.700976,-1.043906,0.399453
1,14,79,1581,0.438967,-0.096528,-0.915817,10.263476,-0.793906,-0.663047
1,14,80,1601,0.443850,-0.093598,-0.912888,8.825976,0.206094,0.336953
1,14,81,1621,0.448733,-0.097993,-0.911423,7.200976,1.206094,1.899453
1,14,82,1641,0.454592,-0.097504,-0.902145,4.200976,0.456094,4.149453
1,14,83,1661,0.463381,-0.098969,-0.896774,4.575976,-0.356406,4.461953
1,14,84,1681,0.469241,-0.119965,-0.913864,6.263476,-1.043906,1.711953
1,14,85,1701,0.472170,-0.133149,-0.932907,5.013476,-1.168906,-0.475547
1,14,86,1721,0.474124,-0.122895,-0.944138,-0.424023,-1.356406,-2.850547
1,14,87,1741,0.483401,-0.118012,-0.943161,-5.049024,0.018594,-5.038047
1,14,88,1761,0.491213,-0.139008,-0.936813,-12.236524,1.956094,-10.913047
1,14,89,1781,0.479495,-0.132172,-0.922653,-18.924023,2.018594,-23.163048
1,14,90,1801,0.462893,-0.051118,-0.849899,-30.486523,0.768594,-41.663048
1,14,91,1821,0.469729,0.048004,-0.729782,-47.736523,-5.168906,-58.663048
1,14,92,1841,0.554202,0.459136,-0.569138,-46.174023,-42.668907,-64.538048
1,14,93,1861,0.560549,1.312652,-0.619431,-11.111524,-99.106407,-24.725548
1,14,94,1881,0.532717,1.668121,-1.000290,51.950977,-89.293907,26.961952
1,14,95,1901,0.387209,1.609039,-1.331345,123.325974,-42.793907,90.774452
1,14,96,1921,0.225100,1.312652,-1.277145,116.263474,-8.168906,154.211960
1,14,97,1941,0.205081,0.913238,-1.232224,87.763474,13.581094,205.774460
1,14,98,1961,0.126467,0.764800,-1.312302,54.388477,32.581093,242.649460
1,14,99,1981,0.098147,0.619781,-1.269333,23.263477,52.831093,285.024445
1,15,0,0,0.346194,-0.079438,-0.575974,6.950976,-88.543907,-338.538055
1,15,1,21,0.354495,0.042144,-0.684372,3.388477,-100.293907,-314.100555
1,15,2,41,0.348635,0.197418,-0.841110,16.450977,-108.356407,-308.163055
1,15,3,61,0.318362,0.398101,-1.027145,39.325977,-86.481407,-308.663055
1,15,4,81,0.353030,0.704742,-1.171188,63.388477,-55.418907,-279.475555
1,15,5,101,0.373538,0.872222,-1.276169,44.450977,-26.231407,-209.600540
1,15,6,121,0.397952,0.797027,-1.199997,-32.674023,-5.231406,-140.475540
1,15,7,141,0.419436,0.653472,-1.100388,-70.111526,4.643594,-105.225548
1,15,8,161,0.437502,0.553863,-1.067184,-48.424023,6.518594,-89.163048
1,15,9,181,0.414553,0.472320,-1.081345,-22.111523,16.018593,-74.600548
1,15,10,201,0.410159,0.333648,-1.009567,-0.736523,23.268593,-64.538048
1,15,11,221,0.391116,0.210113,-0.911911,6.575976,18.206093,-59.788048
1,15,12,241,0.429690,0.453765,-1.022263,43.950977,-27.543907,-69.288048
1,15,13,261,0.728518,1.345367,-1.032028,62.013477,-85.418907,20.774452
1,15,14,281,-0.095701,-0.317719,-1.088181,-65.986526,60.393593,23.274452
1,15,15,301,0.482913,-0.271332,-0.829880,-47.111523,49.081093,-48.038048
1,15,16,321,0.400881,-0.064301,-0.777634,-22.549023,11.018594,-28.600548
1,15,17,341,0.307620,-0.006684,-0.884079,-21.236523,1.081094,-15.288047
1,15,18,361,0.261721,0.008941,-0.906052,-15.174024,5.768594,-15.913047
1,15,19,381,0.241213,0.003082,-0.879196,-21.736523,6.018594,-2.663047
1,15,20,401,0.224124,-0.048188,-0.854294,-26.611523,8.018594,7.211953
1,15,21,421,0.217776,-0.052582,-0.827927,-18.049023,6.768594,1.899453
1,15,22,441,0.264651,0.075836,-0.800095,-11.549024,-3.793906,6.274453
1,15,23,461,0.257815,0.012359,-0.803024,-9.861524,-4.106406,15.961953
1,15,24,481,0.280276,-0.070649,-0.804977,2.200977,-8.668906,13.274453
1,15,25,501,0.319338,-0.019379,-0.824997,6.200976,-16.043907,17.274452
1,15,26,521,0.314456,-0.038422,-0.871384,1.950977,-15.356406,21.149452
1,15,27,541,0.312502,-0.030121,-0.892380,-2.674023,-10.043906,21.149452
1,15,28,561,0.335940,-0.040864,-0.860153,-6.361524,-1.481406,16.711952
1,15,29,581,0.354006,-0.047211,-0.819626,-1.799023,-1.731406,12.149453
1,15,30,601,0.348635,-0.047700,-0.826462,-2.236523,-7.418906,16.899452
1,15,31,621,0.355471,-0.049164,-0.809372,-1.049023,-11.606406,13.461953
1,15,32,641,0.344241,-0.057465,-0.829880,10.075976,-13.981406,8.711953
1,15,33,661,0.347659,-0.032075,-0.858200,14.513476,-10.981406,3.774453
1,15,34,681,0.335452,-0.047700,-0.873337,16.763477,-5.668906,2.024453
1,15,35,701,0.346194,-0.053071,-0.867477,15.138476,-6.606406,7.149453
1,15,36,721,0.342776,-0.064789,-0.879684,11.263476,-8.981406,11.899453
1,15,37,741,0.334475,-0.066254,-0.912399,9.263476,-6.793906,10.899453
1,15,38,761,0.349124,-0.054536,-0.924118,3.513477,-0.418906,9.649453
1,15,39,781,0.360842,-0.072602,-0.908005,-0.111523,4.143594,8.524453
1,15,40,801,0.374026,-0.076020,-0.894333,0.825977,4.518594,8.024453
1,15,41,821,0.372073,-0.071137,-0.889938,-2.174023,4.268594,6.961953
1,15,42,841,0.381350,-0.072114,-0.879196,-2.549023,5.018594,3.211953
1,15,43,861,0.390627,-0.065766,-0.870895,1.575977,5.643594,0.836953
1,15,44,881,0.384768,-0.066254,-0.865036,1.763477,3.956094,0.274453
1,15,45,901,0.382327,-0.067719,-0.865524,3.638477,1.706094,-0.850547
1,15,46,921,0.375002,-0.059907,-0.881149,4.450976,0.456094,-1.038047
1,15,47,941,0.370120,-0.059907,-0.885056,3.075977,1.331094,-1.350547
1,15,48,961,0.364749,-0.063325,-0.880661,3.075977,0.956094,-1.100547
1,15,49,981,0.362795,-0.063813,-0.886520,3.638477,0.331094,-0.725547
1,15,50,1001,0.362307,-0.054047,-0.889450,2.513477,-0.856406,0.461953
1,15,51,1021,0.360354,-0.054047,-0.889450,1.263477,-0.356406,2.274453
1,15,52,1041,0.364749,-0.061371,-0.883591,1.450977,-0.231406,2.961953
1,15,53,1061,0.371096,-0.064789,-0.880661,0.263477,-0.481406,2.836953
1,15,54,1081,0.378909,-0.062348,-0.881149,2.450977,-1.356406,1.899453
1,15,55,1101,0.377444,-0.062348,-0.880661,2.263477,-2.043906,1.149453
1,15,56,1121,0.378909,-0.065278,-0.884567,3.700977,-2.418906,-0.163047
1,15,57,1141,0.374514,-0.064789,-0.896774,4.888476,-1.981406,-1.038047
1,15,58,1161,0.372561,-0.066254,-0.900192,2.825977,-1.293906,-1.100547
1,15,59,1181,0.372073,-0.067719,-0.897751,1.763477,-1.106406,-0.413047
1,15,60,1201,0.369631,-0.061860,-0.898727,2.575977,-0.981406,-0.163047
1,15,61,1221,0.365725,-0.066254,-0.898727,2.200977,-0.543906,0.461953
1,15,62,1241,0.370608,-0.057953,-0.902145,1.513477,-0.418906,0.649453
1,15,63,1261,0.371584,-0.062836,-0.895798,0.450977,-0.418906,2.086953
1,15,64,1281,0.372561,-0.069672,-0.893845,1.825977,-0.731406,1.524453
1,15,65,1301,0.376467,-0.059418,-0.893845,0.575977,-1.418906,1.524453
1,15,66,1321,0.375002,-0.067231,-0.902145,1.575977,-0.981406,0.649453
1,15,67,1341,0.375002,-0.067719,-0.908005,0.388477,-0.856406,0.149453
1,15,68,1361,0.379885,-0.070649,-0.901657,-1.736523,-0.293906,-0.788047
1,15,69,1381,0.375491,-0.071625,-0.906540,-0.736523,0.331094,-1.850547
1,15,70,1401,0.367678,-0.062348,-0.912399,-1.486523,1.643594,-1.663047
1,15,71,1421,0.371096,-0.065766,-0.897263,-2.924023,1.768594,-0.850547
1,15,72,1441,0.375491,-0.058930,-0.882614,-2.174023,1.206094,-0.788047
1,15,73,1461,0.376956,-0.060883,-0.877731,-0.236523,-0.231406,-0.975547
1,15,74,1481,0.369143,-0.061860,-0.896286,2.388477,-0.731406,-1.350547
1,15,75,1501,0.364749,-0.064301,-0.906052,0.013477,-0.731406,-0.538047
1,15,76,1521,0.370608,-0.063325,-0.899704,-0.799023,-0.168906,-0.038047
1,15,77,1541,0.367678,-0.057953,-0.899704,0.513477,0.393594,0.086953
1,15,78,1561,0.369143,-0.063325,-0.891891,0.200977,0.643594,0.524453
1,15,79,1581,0.371584,-0.061371,-0.890427,-0.174023,-0.543906,0.149453
1,15,80,1601,0.371584,-0.062836,-0.896774,-1.049023,-1.293906,0.336953
1,15,81,1621,0.369631,-0.065766,-0.902145,-0.924023,-1.168906,0.336953
1,15,82,1641,0.372073,-0.057953,-0.900192,-2.299023,-0.606406,1.024453
1,15,83,1661,0.373049,-0.063813,-0.893845,-1.986523,-0.793906,1.524453
1,15,84,1681,0.373049,-0.064301,-0.893356,-0.549023,-0.793906,1.399453
1,15,85,1701,0.374026,-0.064301,-0.893845,-1.611523,-0.793906,1.211953
1,15,86,1721,0.376956,-0.062836,-0.890427,-0.236523,-0.793906,0.899453
1,15,87,1741,0.375979,-0.066743,-0.891891,0.450977,-0.981406,0.774453
1,15,88,1761,0.377444,-0.064789,-0.891891,-0.236523,-1.356406,0.399453
1,15,89,1781,0.377932,-0.067719,-0.891403,0.013477,-1.731406,0.461953
1,15,90,1801,0.373049,-0.064301,-0.899216,0.013477,-1.793906,0.149453
1,15,91,1821,0.373538,-0.061860,-0.897263,-0.174023,-1.043906,0.524453
1,15,92,1841,0.374026,-0.065766,-0.894821,0.263477,-0.793906,0.461953
1,15,93,1861,0.376467,-0.060395,-0.896774,0.013477,-0.481406,0.461953
1,15,94,1881,0.381838,-0.064301,-0.891403,0.263477,-0.231406,0.274453
1,15,95,1901,0.380862,-0.070649,-0.890915,0.450977,-1.106406,0.024453
1,15,96,1921,0.375979,-0.066254,-0.900192,0.888477,-1.356406,-0.225547
1,15,97,1941,0.374514,-0.067719,-0.904099,0.700977,-0.418906,-0.788047
1,15,98,1961,0.374514,-0.064301,-0.902634,0.575977,0.456094,-1.600547
1,15,99,1981,0.369631,-0.064301,-0.900681,-0.049023,0.768594,-1.725547
1,16,0,0,0.416506,0.037261,-0.791794,-17.549023,4.643594,-20.600548
1,16,1,21,0.383792,0.190582,-0.598923,-36.736523,-3.543906,-51.913048
1,16,2,41,0.730959,0.913726,-0.327438,-39.799023,-45.918907,-45.538048
1,16,3,61,0.770999,1.819488,-0.582809,60.450977,-138.043900,12.649453
1,16,4,81,0.502932,2.050445,-1.464157,203.450974,-80.043907,99.586952
1,16,5,101,0.153323,1.850250,-1.972946,178.388474,32.831093,196.461960
1,16,6,121,0.070315,1.085601,-1.534470,-32.299023,72.831093,285.149445
1,16,7,141,0.121096,0.451812,-1.138474,-87.361526,77.456093,309.336945
1,16,8,161,0.081057,0.221832,-1.118454,-63.674023,71.581093,318.836945
1,16,9,181,-0.017087,-0.104340,-1.220993,-58.299023,71.518593,327.399445
1,16,10,201,-0.164060,-0.424653,-1.178513,-65.924026,79.706093,332.836945
1,16,11,221,-0.190916,-0.682465,-0.982224,-67.424026,74.143593,333.336945
1,16,12,241,-0.100095,-0.906586,-0.898727,-38.986523,74.956093,331.274445
1,16,13,261,-0.158201,-1.099457,-0.936813,-50.924023,82.581093,327.399445
1,16,14,281,-0.235837,-1.348481,-0.900192,-67.674026,88.706093,320.399445
1,16,15,301,-0.170896,-1.586762,-0.810837,-58.674023,79.831093,315.899445
1,16,16,321,-0.026365,-1.853364,-0.681442,-54.986523,75.956093,284.461945
1,16,17,341,0.062991,-2.216156,-0.644333,-38.299023,55.581093,237.274460
1,16,18,361,0.186038,-2.523774,-0.706833,-33.924023,44.831093,169.461960
1,16,19,381,0.319827,-2.705414,-0.675583,-47.299023,47.768593,88.149452
1,16,20,401,0.428713,-2.743012,-0.607224,-46.549023,8.018594,15.086953
1,16,21,421,0.372561,-2.473969,-0.614548,-17.299023,-4.043906,-92.788048
1,16,22,441,0.330569,-2.135590,-0.641403,33.700977,-11.293906,-176.475540
1,16,23,461,0.267092,-1.902680,-0.687302,72.700974,-16.168907,-237.475540
1,16,24,481,0.270022,-1.724457,-0.666794,63.325977,-19.981407,-280.975555
1,16,25,501,0.274417,-1.527680,-0.641403,48.513477,-26.981407,-326.413055
1,16,26,521,0.189944,-1.225434,-0.663864,58.575977,-41.231407,-365.288055
1,16,27,541,0.100100,-0.898286,-0.710739,81.200974,-53.418907,-388.475555
1,16,28,561,0.106936,-0.484711,-0.720016,95.825974,-68.418907,-392.038055
1,16,29,581,0.151370,-0.142914,-0.757126,96.388474,-76.231407,-371.850555
1,16,30,601,0.155764,0.185699,-0.938766,116.950974,-79.731407,-322.663055
1,16,31,621,0.206545,0.478668,-1.068161,90.575974,-69.231407,-265.788055
1,16,32,641,0.298342,0.678863,-1.116501,54.638477,-44.168907,-210.788040
1,16,33,661,0.373538,0.715484,-1.292770,51.638477,-33.418907,-157.663040
1,16,34,681,0.413088,0.654449,-1.415817,11.138476,-0.481406,-113.788048
1,16,35,701,0.435061,0.603179,-1.282516,-85.549026,31.456093,-80.600548
1,16,36,721,0.484377,0.536773,-0.985641,-78.674026,82.206093,-113.475548
1,16,37,741,0.516116,0.557769,-0.774216,-14.674024,53.768593,-87.788048
1,16,38,761,0.539065,0.437652,-0.787888,-2.299023,33.456093,-72.350548
1,16,39,781,0.471682,0.371734,-0.908005,14.950976,25.018593,-60.913048
1,16,40,801,0.451174,0.266754,-0.932419,10.200976,23.331093,-40.288048
1,16,41,821,0.429690,0.082672,-0.897263,28.700977,31.206093,-31.475548
1,16,42,841,0.439456,0.066558,-0.833786,45.388477,22.893593,-33.475548
1,16,43,861,0.855471,0.916168,-0.514450,45.263477,-57.981407,14.086953
1,16,44,881,0.191897,0.067535,-0.770798,-81.111526,32.581093,65.336952
1,16,45,901,0.333987,-0.348969,-0.869431,-6.361524,26.018593,-7.538047
1,16,46,921,0.508303,-0.182953,-0.709274,38.638477,12.393594,-28.038048
1,16,47,941,0.379397,-0.089203,-0.781540,21.450977,-20.731407,-5.538047
1,16,48,961,0.363284,-0.001801,-0.903122,30.138477,-15.231406,-11.475547
1,16,49,981,0.329104,-0.031098,-0.913376,38.700977,0.581094,-8.288047
1,16,50,1001,0.327151,-0.070649,-0.927536,23.575977,-4.168906,-0.850547
1,16,51,1021,0.359377,-0.045746,-0.907516,17.513477,3.331094,-7.600547
1,16,52,1041,0.335452,-0.042817,-0.899704,11.388476,1.643594,-3.725547
1,16,53,1061,0.349612,-0.051606,-0.923630,11.575976,1.893594,2.586953
1,16,54,1081,0.369143,-0.056000,-0.925095,5.638476,4.206094,2.836953
1,16,55,1101,0.375002,-0.077973,-0.908005,1.263477,2.581094,6.961953
1,16,56,1121,0.394045,-0.068696,-0.892868,-2.736523,0.143594,9.524453
1,16,57,1141,0.400881,-0.067231,-0.878220,-1.611523,-0.418906,8.774453
1,16,58,1161,0.400881,-0.077485,-0.889938,4.638476,-2.043906,5.711953
1,16,59,1181,0.394045,-0.080903,-0.906540,6.263476,-3.168906,2.649453
1,16,60,1201,0.383303,-0.069672,-0.923141,5.388476,-2.293906,2.149453
1,16,61,1221,0.377444,-0.068696,-0.928513,2.700977,-0.793906,0.961953
1,16,62,1241,0.374026,-0.067719,-0.922165,2.075977,1.768594,-1.100547
1,16,63,1261,0.371584,-0.065278,-0.912399,1.138477,2.393594,-0.913047
1,16,64,1281,0.375002,-0.062836,-0.903610,1.200977,1.956094,-1.163047
1,16,65,1301,0.375002,-0.059418,-0.900681,0.888477,0.893594,-1.288047
1,16,66,1321,0.376467,-0.059418,-0.900681,3.575977,-0.293906,-0.350547
1,16,67,1341,0.373538,-0.069672,-0.912399,3.513477,-1.293906,2.336953
1,16,68,1361,0.385256,-0.067719,-0.918259,1.888477,-1.418906,2.461953
1,16,69,1381,0.380862,-0.070161,-0.927048,-0.361523,-0.418906,2.399453
1,16,70,1401,0.389163,-0.073578,-0.916794,-0.486523,0.331094,2.149453
1,16,71,1421,0.388674,-0.070161,-0.914841,1.388477,0.643594,0.711953
1,16,72,1441,0.384768,-0.069672,-0.912888,0.388477,0.581094,0.336953
1,16,73,1461,0.385256,-0.066254,-0.907516,-0.424023,-0.606406,-0.163047
1,16,74,1481,0.382815,-0.070649,-0.916794,0.638477,-1.043906,0.149453
1,16,75,1501,0.380374,-0.068696,-0.922653,0.013477,-0.793906,0.211953
1,16,76,1521,0.379885,-0.065278,-0.919235,-2.486523,-0.293906,-0.038047
1,16,77,1541,0.377932,-0.067719,-0.911911,-1.674023,-0.418906,0.961953
1,16,78,1561,0.386721,-0.074555,-0.911911,-2.049023,-0.918906,0.649453
1,16,79,1581,0.383303,-0.071137,-0.915817,-1.299023,-0.981406,-0.600547
1,16,80,1601,0.385256,-0.069672,-0.917770,-0.736523,-0.293906,-1.038047
1,16,81,1621,0.387698,-0.073090,-0.906540,-1.424023,-0.668906,-1.413047
1,16,82,1641,0.383303,-0.086762,-0.907028,-2.111523,-1.918906,-2.913047
1,16,83,1661,0.385256,-0.104340,-0.919235,-3.549023,-3.043906,-7.663047
1,16,84,1681,0.380862,-0.143891,-0.937302,-6.861524,-3.481406,-17.600548
1,16,85,1701,0.393069,-0.112641,-0.945114,-14.361524,-6.168906,-32.850548
1,16,86,1721,0.388674,-0.029145,-0.914352,-13.674024,-5.668906,-36.538048
1,16,87,1741,0.379397,-0.025727,-0.879196,-6.799024,-1.606406,-27.975548
1,16,88,1761,0.358889,-0.023286,-0.879684,4.450976,-1.043906,-21.225548
1,16,89,1781,0.330569,-0.035004,-0.884079,7.575976,-0.918906,-17.288048
1,16,90,1801,0.308108,-0.018891,-0.887497,9.638476,-0.918906,-13.475547
1,16,91,1821,0.292971,-0.005219,-0.897751,14.888476,0.643594,-8.788047
1,16,92,1841,0.292971,0.017730,-0.902145,17.263477,1.456094,3.336953
1,16,93,1861,0.274417,-0.035004,-0.887497,14.263476,-2.543906,12.274453
1,16,94,1881,0.299807,-0.032075,-0.873337,10.513476,-8.981406,9.524453
1,16,95,1901,0.283206,-0.046723,-0.922165,17.763477,-11.106406,6.961953
1,16,96,1921,0.327151,-0.046235,-0.983688,13.450976,-8.106406,9.149453
1,16,97,1941,0.344241,-0.071625,-0.980759,2.200977,-5.356406,9.899453
1,16,98,1961,0.358401,-0.076020,-0.962692,-17.924023,-3.918906,8.274453
1,16,99,1981,0.362307,-0.068207,-0.955368,-3.986523,-2.543906,6.961953
1,17,0,0,0.356448,0.075836,-0.822556,-58.049023,13.018594,-20.225548
1,17,1,21,0.352053,0.106597,-0.702927,-60.736523,13.206094,-30.413048
1,17,2,41,0.299807,0.102691,-0.660446,-42.549023,3.331094,-38.663048
1,17,3,61,0.390627,0.842925,-0.524216,-26.049023,-47.168907,-31.538048
1,17,4,81,0.609866,2.038238,-0.658981,44.075977,-97.856407,20.586952
1,17,5,101,0.575198,2.238433,-1.079880,130.513474,-65.543907,134.961960
1,17,6,121,0.264163,1.801422,-1.403122,158.700974,-13.481406,195.899460
1,17,7,141,0.195803,1.276519,-1.390915,79.888474,40.956093,250.274460
1,17,8,161,0.094729,0.817047,-1.207321,-16.486523,58.893593,297.336945
1,17,9,181,0.009768,0.280425,-1.096970,-67.486526,71.956093,342.211945
1,17,10,201,-0.111326,-0.072114,-1.076950,-111.549026,70.143593,382.836945
1,17,11,221,-0.228513,-0.442231,-1.034470,-145.049026,66.268593,404.336945
1,17,12,241,-0.318357,-0.740571,-0.963669,-170.174026,50.268593,436.211945
1,17,13,261,-0.247556,-1.007172,-0.888962,-162.424026,74.331093,427.961945
1,17,14,281,-0.237791,-1.156098,-0.840622,-92.111526,65.581093,349.399445
1,17,15,301,-0.347654,-1.351899,-0.904099,-59.486523,43.893593,371.836945
1,17,16,321,-0.374021,-1.627778,-0.873825,-34.174023,42.331093,362.461945
1,17,17,341,-0.366208,-2.087250,-0.854294,4.763476,26.206093,325.211945
1,17,18,361,-0.266599,-2.796235,-0.966599,-12.924024,-10.293906,276.899445
1,17,19,381,-0.075193,-3.334809,-0.950974,-27.924023,33.143593,121.711952
1,17,20,401,0.031252,-3.140473,-0.716110,-8.299024,53.018593,-20.600548
1,17,21,421,0.095706,-2.581879,-0.517868,13.263476,24.081093,-119.725548
1,17,22,441,0.090823,-2.218598,-0.481247,70.325974,-24.168907,-184.100540
1,17,23,461,0.015627,-2.068207,-0.596970,137.825974,-70.793907,-242.413040
1,17,24,481,-0.030759,-1.917817,-0.691208,139.888474,-91.481407,-295.600555
1,17,25,501,-0.056638,-1.720063,-0.765915,99.888474,-105.231407,-352.225555
1,17,26,521,-0.102048,-1.471039,-0.853806,61.888477,-102.981407,-417.975555
1,17,27,541,-0.237791,-1.049653,-0.901169,78.450974,-102.168907,-495.100555
1,17,28,561,-0.329099,-0.293793,-0.977341,126.450974,-98.418907,-532.038025
1,17,29,581,-0.221677,0.245757,-0.931442,106.763474,-102.981407,-484.288055
1,17,30,601,-0.006345,0.544586,-0.737106,67.138474,-129.418900,-414.100555
1,17,31,621,0.072268,0.980132,-1.099899,132.450974,-137.981400,-350.538055
1,17,32,641,0.104495,1.300445,-1.852341,135.325974,-112.918907,-221.038040
1,17,33,661,0.103030,1.034332,-2.041306,-8.486524,-0.606406,-110.850548
1,17,34,681,0.179202,0.852691,-1.698532,-121.736526,62.331093,-86.288048
1,17,35,701,0.508303,1.095367,-0.997849,-171.236526,65.831093,-95.975548
1,17,36,721,0.745120,1.000640,-0.677048,-114.111526,31.643593,-33.038048
1,17,37,741,0.675784,0.724273,-0.838181,-42.361523,3.206094,-0.288047
1,17,38,761,0.547366,0.286773,-0.929489,-1.674023,7.893594,-4.850547
1,17,39,781,0.468752,-0.064301,-0.949997,16.513477,4.206094,-8.350547
1,17,40,801,0.402346,-0.217133,-0.968552,13.263476,14.893594,-10.788047
1,17,41,821,0.308108,-0.216157,-0.908981,-10.424024,27.581093,-20.288048
1,17,42,841,0.331057,-0.060883,-0.798141,-38.674023,18.956093,-28.475548
1,17,43,861,0.631838,0.509429,-0.801559,2.700977,-17.106407,-32.725548
1,17,44,881,0.439456,0.542632,-0.956833,-1.799023,-16.543907,45.961952
1,17,45,901,0.105471,-0.172700,-1.038376,-15.924024,36.456093,34.711952
1,17,46,921,0.354495,-0.298676,-0.860153,7.638476,23.143593,-2.475547
1,17,47,941,0.396487,-0.131684,-0.797165,0.763477,7.143594,-4.288047
1,17,48,961,0.381350,-0.019379,-0.833786,-0.299023,6.206094,-7.663047
1,17,49,981,0.332034,-0.034516,-0.883591,9.763476,9.768594,-8.288047
1,17,50,1001,0.340334,-0.049164,-0.880661,10.825976,10.393594,-10.038047
1,17,51,1021,0.397463,-0.027680,-0.821091,14.200976,3.956094,-8.100547
1,17,52,1041,0.374514,-0.034516,-0.818161,24.638477,-4.168906,-1.975547
1,17,53,1061,0.362307,-0.060883,-0.878708,28.638477,-8.231406,2.274453
1,17,54,1081,0.359866,-0.059907,-0.908005,20.200977,-10.418906,3.086953
1,17,55,1101,0.354495,-0.054047,-0.959763,8.825976,-10.106406,3.836953
1,17,56,1121,0.343264,-0.056977,-1.002243,0.138477,-2.481406,1.649453
1,17,57,1141,0.332522,-0.069184,-0.977341,-12.674024,6.018594,1.836953
1,17,58,1161,0.349124,-0.059907,-0.932419,-22.736523,10.518594,4.149453
1,17,59,1181,0.369143,-0.055512,-0.859665,-20.674023,11.268594,4.149453
1,17,60,1201,0.372073,-0.069184,-0.823532,-12.424024,6.456094,1.899453
1,17,61,1221,0.380374,-0.056977,-0.833298,-7.299024,1.643594,1.149453
1,17,62,1241,0.370120,-0.063325,-0.865524,-2.861523,-1.106406,1.086953
1,17,63,1261,0.364749,-0.063813,-0.888962,2.013477,-0.481406,-0.100547
1,17,64,1281,0.361819,-0.063813,-0.898239,-0.361523,0.893594,0.399453
1,17,65,1301,0.363284,-0.064789,-0.889450,-2.549023,1.956094,1.211953
1,17,66,1321,0.370608,-0.062348,-0.881638,-4.236524,2.081094,2.024453
1,17,67,1341,0.375002,-0.068207,-0.875290,-4.674024,1.831094,1.024453
1,17,68,1361,0.379397,-0.069184,-0.880661,-3.549023,2.018594,-1.475547
1,17,69,1381,0.372073,-0.076020,-0.883591,-4.924024,2.518594,-2.663047
1,17,70,1401,0.367678,-0.065278,-0.889938,-6.049024,2.893594,-2.600547
1,17,71,1421,0.363772,-0.052094,-0.887009,-8.674024,5.518594,-2.788047
1,17,72,1441,0.366702,-0.060395,-0.862595,-10.549024,7.018594,-3.913047
1,17,73,1461,0.356936,-0.054047,-0.845505,-12.174024,5.831094,-4.038047
1,17,74,1481,0.354495,-0.046723,-0.832321,-10.674024,4.143594,-2.538047
1,17,75,1501,0.352053,-0.047700,-0.824509,-7.299024,1.893594,-1.725547
1,17,76,1521,0.354983,-0.049653,-0.829391,-2.986523,0.456094,-1.038047
1,17,77,1541,0.354983,-0.051118,-0.832321,1.388477,-0.356406,-1.163047
1,17,78,1561,0.354495,-0.053559,-0.841110,4.200976,-1.481406,-0.538047
1,17,79,1581,0.356936,-0.062348,-0.854294,6.075976,-2.231406,-0.100547
1,17,80,1601,0.364749,-0.062348,-0.865036,4.200976,-0.793906,-0.600547
1,17,81,1621,0.365725,-0.063813,-0.862595,3.763477,0.206094,-1.038047
1,17,82,1641,0.364260,-0.062836,-0.863083,2.513477,0.956094,-1.163047
1,17,83,1661,0.359377,-0.057953,-0.858688,0.325977,1.143594,-0.725547
1,17,84,1681,0.357913,-0.058442,-0.851852,-0.236523,0.393594,-0.600547
1,17,85,1701,0.354983,-0.056000,-0.860641,-0.111523,0.081094,-0.788047
1,17,86,1721,0.355959,-0.056977,-0.861130,0.325977,0.831094,-1.163047
1,17,87,1741,0.356448,-0.060395,-0.857712,0.200977,1.393594,-1.475547
1,17,88,1761,0.356448,-0.054047,-0.856735,0.013477,1.393594,-1.413047
1,17,89,1781,0.355959,-0.053071,-0.849899,0.200977,1.331094,-0.975547
1,17,90,1801,0.354983,-0.057465,-0.852829,0.388477,0.643594,-0.850547
1,17,91,1821,0.355959,-0.056977,-0.860153,0.950977,0.706094,-1.163047
1,17,92,1841,0.355471,-0.057465,-0.862595,0.450977,1.456094,-1.413047
