label,rep,idx,t_ms,ax,ay,az,gx,gy,gz
2,1,0,0,0.481448,0.019683,-0.973923,68.388474,-35.731407,-53.788048
2,1,1,21,0.357424,0.296050,-1.162399,26.825977,-12.606406,-39.475548
2,1,2,41,0.536135,0.604156,-1.115524,-12.049024,-21.168907,-13.413047
2,1,3,61,0.644045,1.233062,-1.496872,-16.861523,-24.668907,33.399452
2,1,4,81,0.722659,1.286773,-1.668747,-56.611523,41.643593,88.086952
2,1,5,101,0.696780,1.014312,-1.420700,-70.424026,64.706093,129.211960
2,1,6,121,0.635745,0.719390,-1.150681,-60.549023,73.206093,151.836960
2,1,7,141,0.608889,0.537261,-1.152634,-43.674023,92.206093,158.149460
2,1,8,161,0.553225,0.519195,-1.137009,-43.361523,120.956093,192.836960
2,1,9,181,0.516604,0.596343,-0.829880,-33.611523,140.956100,238.586960
2,1,10,201,0.424807,0.432769,-0.468063,-38.486523,125.206093,300.211945
2,1,11,221,0.247561,0.012359,-0.262497,15.950976,94.018593,337.149445
2,1,12,241,0.052249,-0.315278,-0.198532,22.013477,79.018593,374.399445
2,1,13,261,-0.081052,-0.895356,0.025589,-59.361523,80.706093,391.086945
2,1,14,281,-0.097166,-1.525239,0.221390,-120.174026,62.456093,363.524445
2,1,15,301,-0.064939,-1.892914,0.265823,-142.549026,12.518594,263.086945
2,1,16,321,0.139163,-2.033539,0.427933,-94.799026,-41.606407,161.586960
2,1,17,341,0.210940,-1.959809,0.262894,6.450976,-108.043907,129.336960
2,1,18,361,0.135256,-2.047699,-0.313278,7.325976,-165.356400,104.399452
2,1,19,381,0.152346,-2.083344,-0.669235,-34.861523,-169.606400,67.524452
2,1,20,401,0.187502,-2.041352,-0.947067,-76.111526,-173.981400,37.086952
2,1,21,421,0.211917,-2.064789,-1.271286,-92.549026,-175.918900,-2.663047
2,1,22,441,0.254885,-2.090180,-1.611130,-95.424026,-180.793900,-42.288048
2,1,23,461,0.257815,-2.008149,-2.004684,-66.924026,-159.231400,-88.100548
2,1,24,481,0.259768,-1.764496,-2.364059,-67.611526,-100.543907,-131.850540
2,1,25,501,0.306155,-1.402680,-2.531540,-70.111526,-20.793907,-183.788040
2,1,26,521,0.382815,-0.868012,-2.441696,-42.174023,61.081093,-221.475540
2,1,27,541,0.497073,0.015289,-2.093063,-16.924023,90.518593,-219.600540
2,1,28,561,0.688479,0.773101,-1.520309,-3.424023,105.018593,-176.788040
2,1,29,581,0.897463,1.029449,-1.206833,82.825974,101.768593,-115.038048
2,1,30,601,0.933108,1.240875,-1.298141,150.763474,119.018593,-53.600548
2,1,31,621,0.974124,1.034332,-0.907028,147.513474,163.956100,26.211952
2,1,32,641,0.922854,0.472808,-0.420700,135.138474,179.706100,89.961952
2,1,33,661,0.863772,-0.005219,0.004593,45.075977,175.393600,128.086960
2,1,34,681,0.908206,-0.424653,0.360550,-87.111526,155.643600,155.024460
2,1,35,701,1.016604,-0.853364,0.640823,-50.486523,98.393593,163.024460
2,1,36,721,0.958499,-0.924653,0.524124,25.825977,36.768593,159.649460
2,1,37,741,0.891604,-1.212250,0.411819,41.763477,-0.543906,163.711960
2,1,38,761,0.770510,-1.611664,0.192581,45.138477,-40.356407,138.024460
2,1,39,781,0.718264,-1.892426,-0.082809,5.200976,-59.606407,84.961952
2,1,40,801,0.704104,-1.820649,-0.346970,-35.361523,-68.418907,27.586952
2,1,41,821,0.741702,-1.668305,-0.608200,-67.924026,-72.043907,3.836953
2,1,42,841,0.734866,-1.630219,-0.783981,-92.111526,-69.043907,-7.288047
2,1,43,861,0.743655,-1.554047,-0.946091,-98.861526,-61.168907,-19.538048
2,1,44,881,0.774417,-1.490082,-1.061325,-97.049026,-57.106407,-36.288048
2,1,45,901,0.811038,-1.404145,-1.119919,-81.736526,-52.231407,-57.288048
2,1,46,921,0.845706,-1.236176,-1.114548,-68.361526,-48.793907,-80.413048
2,1,47,941,0.889651,-1.011567,-1.121384,-40.111523,-48.231407,-87.413048
2,1,48,961,0.937014,-0.792817,-1.170212,-18.299023,-43.168907,-75.225548
2,1,49,981,0.966311,-0.697602,-1.157028,0.700977,-39.481407,-56.225548
2,1,50,1001,0.971194,-0.735688,-1.167770,10.513476,-35.668907,-40.038048
2,1,51,1021,0.962893,-0.777680,-1.224899,6.013476,-17.793907,-30.788048
2,1,52,1041,0.984377,-0.755707,-1.156052,-17.924023,8.643594,-25.538048
2,1,53,1061,1.037600,-0.702485,-0.975876,-29.299023,19.268593,-22.475548
2,1,54,1081,1.097170,-0.693696,-0.857712,-17.424023,13.706094,-9.475547
2,1,55,1101,1.074709,-0.785981,-0.824997,3.200977,3.706094,2.274453
2,1,56,1121,1.056155,-0.865082,-0.872360,14.638476,3.331094,2.961953
2,1,57,1141,1.044436,-0.896332,-0.870407,1.763477,10.331094,2.711953
2,1,58,1161,1.037112,-0.899750,-0.827927,-5.861524,14.768594,2.649453
2,1,59,1181,1.032717,-0.896821,-0.787399,-14.361524,14.393594,3.586953
2,1,60,1201,1.025393,-0.901215,-0.778610,-11.424024,6.018594,1.899453
2,1,61,1221,1.003909,-0.902192,-0.846481,-4.111524,1.018594,0.899453
2,1,62,1241,1.003420,-0.915864,-0.850876,-0.361523,-0.668906,0.711953
2,1,63,1261,0.994143,-0.906586,-0.877243,5.888476,-3.981406,0.524453
2,1,64,1281,0.984866,-0.918305,-0.933395,6.825976,-4.043906,1.586953
2,1,65,1301,0.967288,-0.908539,-0.969040,6.450976,-1.731406,2.399453
2,1,66,1321,0.959475,-0.911957,-0.956345,-1.674023,1.518594,4.274453
2,1,67,1341,0.974124,-0.937836,-0.941208,-10.049024,2.956094,5.024453
2,1,68,1361,0.973147,-0.944672,-0.935349,-11.736524,3.581094,4.774453
2,1,69,1381,0.978518,-0.945649,-0.912399,-8.986524,4.018594,3.024453
2,1,70,1401,0.991213,-0.955414,-0.887497,1.200977,1.893594,1.899453
2,1,71,1421,0.991213,-0.960786,-0.892868,6.325976,0.456094,-0.413047
2,1,72,1441,0.994143,-0.956879,-0.901657,3.325977,1.956094,-2.225547
2,1,73,1461,0.994143,-0.924164,-0.873337,-4.424024,3.268594,-1.975547
2,1,74,1481,1.004397,-0.923188,-0.849899,-7.736524,1.768594,-0.350547
2,1,75,1501,1.001956,-0.914887,-0.860153,1.075977,-0.231406,-0.788047
2,1,76,1521,1.001467,-0.910493,-0.872849,7.825976,-1.668906,-0.850547
2,1,77,1541,0.999514,-0.924653,-0.892868,11.763476,-1.668906,-0.475547
2,1,78,1561,0.993167,-0.927582,-0.916306,3.138477,1.643594,-0.725547
2,1,79,1581,0.995120,-0.916352,-0.905075,-11.174024,5.268594,-0.538047
2,1,80,1601,1.001467,-0.906586,-0.878708,-19.799023,6.768594,1.649453
2,1,81,1621,1.007815,-0.911957,-0.849899,-13.236524,4.456094,2.524453
2,1,82,1641,1.004397,-0.922211,-0.857224,-0.924023,0.518594,1.149453
2,1,83,1661,1.000002,-0.916840,-0.882126,3.825977,-0.418906,1.399453
2,1,84,1681,0.995608,-0.906098,-0.895798,2.013477,1.581094,3.524453
2,1,85,1701,0.993655,-0.912446,-0.895309,-8.924024,4.893594,5.836953
2,1,86,1721,0.992678,-0.936860,-0.897263,-26.674023,7.393594,8.024453
2,1,87,1741,0.991702,-0.941743,-0.879684,-30.049023,9.018594,8.336953
2,1,88,1761,0.998049,-0.963715,-0.835739,-13.486524,5.956094,5.836953
2,1,89,1781,0.995608,-0.969086,-0.840134,2.138477,0.143594,2.836953
2,1,90,1801,0.990237,-0.976899,-0.864548,2.763477,-1.731406,0.711953
2,1,91,1821,0.981936,-0.963715,-0.885056,-5.361524,-0.043906,-0.288047
2,1,92,1841,0.986819,-0.940766,-0.859177,-11.299024,1.143594,0.024453
2,1,93,1861,0.997073,-0.951020,-0.849899,-8.611524,-1.356406,0.336953
2,1,94,1881,0.988772,-0.950043,-0.878708,-6.236524,-1.731406,-0.538047
2,1,95,1901,0.982913,-0.936371,-0.883591,-7.611524,0.831094,-0.663047
2,1,96,1921,0.993167,-0.930512,-0.866501,-5.924024,1.268594,-0.663047
2,1,97,1941,0.993655,-0.933442,-0.868942,-0.611523,0.581094,0.461953
2,1,98,1961,1.000002,-0.936860,-0.867477,1.200977,-0.231406,0.399453
2,1,99,1981,1.005862,-0.933442,-0.875290,1.075977,-0.918906,-0.725547
2,2,0,0,1.035647,-1.090668,-0.902145,-27.861523,-11.856406,1.274453
2,2,1,21,1.010256,-1.109711,-0.970505,-26.924023,-17.106407,1.899453
2,2,2,41,0.976077,-1.154633,-1.107224,-21.486523,-19.668907,-1.538047
2,2,3,61,0.878909,-1.206391,-1.247849,-30.049023,-10.543906,-10.850547
2,2,4,81,0.819338,-1.141938,-1.322556,-26.924023,5.268594,-34.788048
2,2,5,101,0.806155,-0.983246,-1.358688,-6.049024,21.456093,-56.100548
2,2,6,121,0.814456,-0.723481,-1.315720,6.763476,54.268593,-66.038048
2,2,7,141,0.867678,-0.456391,-1.080368,-6.361524,86.831093,-62.975548
2,2,8,161,0.927737,-0.197602,-0.792770,-8.424024,104.456093,-53.225548
2,2,9,181,1.002932,0.081207,-0.547165,12.325976,107.956093,-27.850548
2,2,10,201,1.050295,0.151519,-0.349411,33.575977,105.018593,21.149452
2,2,11,221,1.087893,0.018218,-0.166306,62.888477,82.643593,59.336952
2,2,12,241,1.046389,-0.150727,-0.109665,80.200974,63.893593,97.524452
2,2,13,261,1.009280,-0.410981,-0.074020,71.513474,44.956093,137.211960
2,2,14,281,0.929202,-0.814301,-0.097946,40.013477,24.643593,170.774460
2,2,15,301,0.835940,-1.158539,-0.132126,-0.299023,8.831094,181.899460
2,2,16,321,0.810061,-1.510590,-0.156052,-35.549023,-2.231406,168.711960
2,2,17,341,0.797854,-1.847504,-0.179977,-48.549023,-23.543907,132.274460
2,2,18,361,0.732424,-2.004731,-0.283005,-41.486523,-42.981407,76.899452
2,2,19,381,0.732913,-1.960297,-0.386032,-47.361523,-55.856407,27.336952
2,2,20,401,0.747561,-1.816743,-0.513474,-52.049023,-64.981407,2.461953
2,2,21,421,0.749514,-1.740082,-0.643845,-65.861526,-68.231407,-5.788047
2,2,22,441,0.737795,-1.757661,-0.785446,-84.861526,-67.418907,-13.913047
2,2,23,461,0.732913,-1.735688,-0.887985,-97.174026,-63.918907,-34.663048
2,2,24,481,0.761721,-1.595063,-0.971481,-94.861526,-59.481407,-61.850548
2,2,25,501,0.802249,-1.441254,-1.038376,-72.299026,-62.356407,-82.163048
2,2,26,521,0.820315,-1.327973,-1.140427,-48.361523,-73.606407,-87.288048
2,2,27,541,0.791995,-1.278657,-1.295212,-33.236523,-80.856407,-91.038048
2,2,28,561,0.795413,-1.223481,-1.444138,-14.736524,-77.918907,-102.975548
2,2,29,581,0.811038,-1.108246,-1.592087,5.013476,-67.668907,-118.413048
2,2,30,601,0.801272,-0.922700,-1.701462,17.513477,-46.231407,-122.600548
2,2,31,621,0.800784,-0.760590,-1.720993,15.388476,-16.043907,-107.538048
2,2,32,641,0.810549,-0.656586,-1.631149,13.388476,13.331094,-99.163048
2,2,33,661,0.863284,-0.489594,-1.448532,31.763477,40.331093,-95.975548
2,2,34,681,0.908694,-0.345551,-1.183884,31.325977,57.081093,-77.913048
2,2,35,701,0.933596,-0.340180,-0.947067,41.888477,54.518593,-65.163048
2,2,36,721,0.919924,-0.260590,-0.929489,77.950974,44.143593,-60.413048
2,2,37,741,0.917483,-0.164887,-0.970993,91.700974,45.643593,-49.600548
2,2,38,761,0.926272,-0.153168,-0.891891,82.075974,53.393593,-30.850548
2,2,39,781,0.933108,-0.217621,-0.786911,77.950974,60.143593,-10.350547
2,2,40,801,0.935061,-0.336274,-0.715622,55.450977,64.268593,10.774453
2,2,41,821,0.967776,-0.483735,-0.620407,28.450977,62.456093,28.586952
2,2,42,841,0.988284,-0.606293,-0.543259,14.575976,55.956093,37.524452
2,2,43,861,1.012698,-0.740082,-0.481735,11.325976,45.456093,41.149452
2,2,44,881,1.033206,-0.813813,-0.424606,-1.736523,33.331093,44.399452
2,2,45,901,1.060549,-0.933930,-0.370407,-18.174023,15.831094,45.336952
2,2,46,921,1.045413,-1.009125,-0.468552,-1.861523,-0.731406,37.461952
2,2,47,941,1.025881,-1.049653,-0.596481,-2.736523,-6.606406,25.274452
2,2,48,961,1.026370,-1.062348,-0.633591,-4.924024,-6.668906,11.774453
2,2,49,981,1.047366,-1.033051,-0.642380,-9.924024,-11.856406,5.211953
2,2,50,1001,1.025881,-1.016938,-0.720505,-15.299024,-17.606407,4.711953
2,2,51,1021,1.000491,-1.012055,-0.815720,-23.049023,-15.668906,3.399453
2,2,52,1041,0.985842,-0.980805,-0.865524,-30.049023,-11.231406,-0.288047
2,2,53,1061,0.982424,-0.963715,-0.886032,-22.861523,-9.168906,-3.663047
2,2,54,1081,0.962405,-0.948090,-0.950485,-0.111523,-5.918906,-10.600547
2,2,55,1101,0.951174,-0.895844,-0.955856,2.825977,0.831094,-15.475547
2,2,56,1121,0.968264,-0.840668,-0.886032,-5.674024,2.518594,-13.600547
2,2,57,1141,0.974612,-0.811371,-0.874802,-4.799024,-0.918906,-11.788047
2,2,58,1161,0.988284,-0.784028,-0.876755,-3.861523,-1.231406,-9.475547
2,2,59,1181,0.984377,-0.767426,-0.888962,-2.174023,0.956094,-4.725547
2,2,60,1201,0.986819,-0.798188,-0.855759,0.075977,3.643594,-1.038047
2,2,61,1221,0.989260,-0.838227,-0.834274,4.200976,3.956094,0.149453
2,2,62,1241,0.995608,-0.847993,-0.811325,-1.049023,4.393594,0.399453
2,2,63,1261,1.000979,-0.850922,-0.799606,-2.174023,-12.356406,0.524453
2,2,64,1281,1.004885,-0.842133,-0.785446,-4.486524,1.643594,-0.100547
2,2,65,1301,1.007815,-0.841645,-0.776169,-2.549023,-2.106406,-0.725547
2,2,66,1321,0.995120,-0.831391,-0.809860,1.513477,-2.606406,-0.413047
2,2,67,1341,0.996096,-0.833832,-0.806442,-3.299023,-0.543906,1.461953
2,2,68,1361,0.993655,-0.842133,-0.798630,-4.861524,-0.856406,1.586953
2,2,69,1381,0.991702,-0.839692,-0.804489,-3.361523,-2.168906,0.836953
2,2,70,1401,0.986819,-0.839203,-0.822556,-3.424023,-2.793906,1.024453
2,2,71,1421,0.982913,-0.837250,-0.840134,-5.986524,-0.793906,1.899453
2,2,72,1441,0.975588,-0.849457,-0.834763,-10.611524,1.268594,3.024453
2,2,73,1461,0.977053,-0.852387,-0.824020,-5.861524,1.268594,1.836953
2,2,74,1481,0.976077,-0.856293,-0.816208,-2.174023,-0.168906,0.711953
2,2,75,1501,0.981936,-0.863129,-0.814743,-0.861523,-3.043906,-0.038047
2,2,76,1521,0.978518,-0.857270,-0.842087,-1.361523,-4.106406,0.149453
2,2,77,1541,0.972659,-0.862641,-0.856735,-2.361523,-2.606406,0.149453
2,2,78,1561,0.980471,-0.866059,-0.847458,-2.736523,-0.606406,-0.663047
2,2,79,1581,0.991702,-0.850922,-0.825485,-2.549023,-1.106406,-1.538047
2,2,80,1601,0.993655,-0.846039,-0.820114,-0.736523,-2.606406,-1.038047
2,2,81,1621,0.993167,-0.851899,-0.841599,-2.549023,-2.731406,0.086953
2,2,82,1641,0.993655,-0.854828,-0.846481,-4.861524,-1.543906,0.086953
2,2,83,1661,0.995120,-0.846528,-0.845016,-1.736523,-0.668906,-0.163047
2,2,84,1681,0.997561,-0.843598,-0.840134,-1.111523,-0.418906,-0.038047
2,2,85,1701,0.992678,-0.843110,-0.838181,-1.049023,-0.293906,0.961953
2,2,86,1721,0.994143,-0.846528,-0.839645,-0.549023,0.393594,1.899453
2,2,87,1741,0.985842,-0.854828,-0.835739,-0.424023,0.143594,1.899453
2,2,88,1761,0.990725,-0.857270,-0.823044,3.075977,-0.106406,0.336953
2,2,89,1781,0.991213,-0.848969,-0.826950,2.513477,-1.418906,0.711953
2,2,90,1801,0.979006,-0.853852,-0.852341,-2.424023,0.206094,1.836953
2,2,91,1821,0.980471,-0.859223,-0.832809,-6.299024,2.956094,2.336953
2,2,92,1841,0.988284,-0.865082,-0.813766,-2.674023,1.331094,1.586953
2,2,93,1861,0.983401,-0.861176,-0.818649,1.763477,-0.856406,-0.100547
2,2,94,1881,0.982913,-0.860200,-0.824020,2.263477,-1.106406,-0.538047
2,2,95,1901,0.982913,-0.857758,-0.822067,-0.424023,-0.793906,-0.413047
2,2,96,1921,0.981936,-0.850434,-0.824509,-4.174024,-1.043906,-0.350547
2,2,97,1941,0.979006,-0.843598,-0.834763,-4.111524,-0.293906,0.149453
2,2,98,1961,0.984866,-0.850434,-0.829880,-2.549023,0.206094,0.149453
2,2,99,1981,0.987307,-0.845063,-0.824509,1.638477,-0.106406,-0.225547
2,3,0,0,0.964358,-0.855317,-1.017380,5.950976,0.518594,-5.538047
2,3,1,21,0.928713,-0.812348,-1.108688,6.388476,8.456094,-8.163047
2,3,2,41,0.914065,-0.747407,-1.121384,11.888476,21.268593,-10.475547
2,3,3,61,0.911135,-0.688325,-1.071579,12.013476,36.518593,-14.725547
2,3,4,81,0.953127,-0.526703,-0.943649,9.200976,49.768593,-18.663048
2,3,5,101,1.009280,-0.351899,-0.797165,4.763476,57.518593,-7.100547
2,3,6,121,1.031252,-0.288911,-0.676559,3.575977,61.206093,18.399452
2,3,7,141,1.000979,-0.320649,-0.569138,20.450977,61.643593,37.461952
2,3,8,161,0.986331,-0.392914,-0.494919,39.450977,56.018593,56.024452
2,3,9,181,0.993167,-0.516938,-0.417770,40.638477,51.018593,74.524452
2,3,10,201,0.996584,-0.636078,-0.324020,30.138477,46.893593,91.336952
2,3,11,221,0.985842,-0.791840,-0.217575,4.325976,38.706093,114.274452
2,3,12,241,0.947756,-0.986176,-0.185837,-17.611523,24.018593,134.836960
2,3,13,261,0.898440,-1.211274,-0.177048,-21.361523,5.581094,143.274460
2,3,14,281,0.879397,-1.462739,-0.208786,-24.799023,-12.106406,138.711960
2,3,15,301,0.843264,-1.708832,-0.291794,-39.924023,-31.168907,115.274452
2,3,16,321,0.807131,-1.822114,-0.424118,-50.674023,-44.418907,76.961952
2,3,17,341,0.788088,-1.801606,-0.553024,-66.861526,-49.606407,45.524452
2,3,18,361,0.762209,-1.748383,-0.672653,-81.611526,-50.356407,21.649452
2,3,19,381,0.764163,-1.733246,-0.765427,-84.049026,-54.043907,-2.788047
2,3,20,401,0.770510,-1.696137,-0.859177,-75.299026,-61.606407,-33.100548
2,3,21,421,0.774417,-1.599457,-0.973434,-62.986523,-65.106407,-66.725548
2,3,22,441,0.798342,-1.467133,-1.049606,-58.299023,-64.168907,-90.475548
2,3,23,461,0.827639,-1.314301,-1.117966,-62.736523,-63.918907,-97.288048
2,3,24,481,0.869143,-1.210786,-1.190231,-65.049026,-65.668907,-95.538048
2,3,25,501,0.878909,-1.105317,-1.292282,-48.986523,-63.043907,-95.288048
2,3,26,521,0.893069,-0.992524,-1.407516,-31.424023,-52.418907,-89.413048
2,3,27,541,0.892581,-0.915864,-1.477829,-14.299024,-33.543907,-75.913048
2,3,28,561,0.893069,-0.891450,-1.478317,0.075977,-12.981406,-67.538048
2,3,29,581,0.909182,-0.853852,-1.384567,10.888476,5.768594,-65.038048
2,3,30,601,0.931643,-0.806977,-1.272751,18.013477,19.456093,-57.975548
2,3,31,621,0.934573,-0.785004,-1.162888,8.388476,30.393593,-52.288048
2,3,32,641,0.959963,-0.719575,-1.051559,12.263476,31.081093,-52.038048
2,3,33,661,0.951663,-0.651703,-1.026169,24.200977,28.018593,-50.788048
2,3,34,681,0.951174,-0.617524,-1.005661,35.888477,26.581093,-48.225548
2,3,35,701,0.937991,-0.595551,-0.993454,42.075977,27.956093,-44.100548
2,3,36,721,0.925784,-0.532563,-0.956345,37.825977,34.393593,-40.850548
2,3,37,741,0.953616,-0.460786,-0.862106,35.263477,37.518593,-32.663048
2,3,38,761,0.958499,-0.447602,-0.812790,36.138477,36.206093,-17.725548
2,3,39,781,0.939944,-0.506684,-0.790817,43.388477,33.018593,-9.600547
2,3,40,801,0.915530,-0.583832,-0.808395,48.263477,31.706093,-4.038047
2,3,41,821,0.897952,-0.634614,-0.811813,45.325977,35.706093,-0.413047
2,3,42,841,0.916506,-0.669282,-0.746384,33.700977,42.018593,3.711953
2,3,43,861,0.943850,-0.707856,-0.649704,25.700977,40.518593,5.961953
2,3,44,881,0.970706,-0.750825,-0.602341,25.200977,34.331093,6.586953
2,3,45,901,0.978518,-0.779633,-0.576462,18.138477,28.081093,7.711953
2,3,46,921,1.005862,-0.832368,-0.533005,9.450976,23.018593,9.024453
2,3,47,941,1.023440,-0.840180,-0.527145,7.763476,13.956094,5.524453
2,3,48,961,1.039553,-0.846528,-0.536423,8.388476,3.331094,1.774453
2,3,49,981,1.051760,-0.868989,-0.563278,12.325976,-6.543906,-2.100547
2,3,50,1001,1.032717,-0.865082,-0.640915,10.638476,-13.168906,-4.038047
2,3,51,1021,1.019534,-0.857270,-0.704391,0.950977,-12.293906,-1.913047
2,3,52,1041,1.013186,-0.851899,-0.732712,-7.799024,-10.106406,-0.975547
2,3,53,1061,1.010745,-0.853852,-0.783005,-12.299024,-10.106406,0.149453
2,3,54,1081,1.000979,-0.853364,-0.826462,-10.861524,-9.293906,-0.663047
2,3,55,1101,0.992678,-0.857758,-0.845993,-4.111524,-7.856406,-2.725547
2,3,56,1121,0.983889,-0.862641,-0.841599,-0.924023,-7.293906,-5.788047
2,3,57,1141,0.979495,-0.838227,-0.866501,-2.611523,-4.856406,-6.288047
2,3,58,1161,0.974124,-0.807953,-0.869919,-6.674024,-0.856406,-5.725547
2,3,59,1181,0.980959,-0.798188,-0.845505,-8.299024,0.831094,-5.038047
2,3,60,1201,0.988284,-0.796235,-0.824509,-5.799024,-0.043906,-5.163047
2,3,61,1221,0.986819,-0.780121,-0.831345,-3.674023,-0.856406,-4.788047
2,3,62,1241,0.988772,-0.761078,-0.834274,-3.549023,-1.168906,-3.975547
2,3,63,1261,0.986331,-0.755219,-0.833298,-1.674023,0.018594,-2.288047
2,3,64,1281,0.989260,-0.764496,-0.816208,-1.299023,0.393594,-0.538047
2,3,65,1301,0.991702,-0.776703,-0.801559,-3.924023,-0.606406,0.899453
2,3,66,1321,0.996096,-0.784516,-0.797165,-2.486523,-2.793906,2.211953
2,3,67,1341,0.982424,-0.793305,-0.823532,-1.299023,-2.981406,2.336953
2,3,68,1361,0.976565,-0.803071,-0.824997,-4.486524,-1.356406,2.211953
2,3,69,1381,0.978518,-0.800141,-0.814255,-3.611523,-0.481406,1.336953
2,3,70,1401,0.979006,-0.790864,-0.811325,-1.674023,-0.981406,1.461953
2,3,71,1421,0.975588,-0.801606,-0.815231,-1.674023,-1.918906,2.399453
2,3,72,1441,0.968264,-0.811860,-0.814255,-3.424023,-2.481406,2.274453
2,3,73,1461,0.969729,-0.823090,-0.820114,-0.986523,-3.231406,0.399453
2,3,74,1481,0.960940,-0.815278,-0.838181,-3.736523,-1.668906,-0.725547
2,3,75,1501,0.969241,-0.805024,-0.825974,-5.236524,1.081094,-0.538047
2,3,76,1521,0.978518,-0.803559,-0.813766,-2.174023,-0.231406,-0.725547
2,3,77,1541,0.979983,-0.800141,-0.817673,0.700977,-2.231406,-1.225547
2,3,78,1561,0.980959,-0.806977,-0.824509,-0.049023,-3.231406,-0.788047
2,3,79,1581,0.979983,-0.798188,-0.831833,-0.924023,-2.168906,-0.913047
2,3,80,1601,0.985354,-0.789887,-0.829880,-0.111523,-1.418906,-0.913047
2,3,81,1621,0.981936,-0.786469,-0.839645,0.388477,-0.856406,0.024453
2,3,82,1641,0.975588,-0.803071,-0.840622,-0.236523,0.143594,1.149453
2,3,83,1661,0.981448,-0.816254,-0.825485,-2.236523,0.206094,0.649453
2,3,84,1681,0.981448,-0.808930,-0.831833,-1.236523,-1.043906,-0.413047
2,3,85,1701,0.977542,-0.793793,-0.846481,0.388477,-0.418906,0.149453
2,3,86,1721,0.974124,-0.806000,-0.839645,-0.299023,0.893594,0.524453
2,3,87,1741,0.979495,-0.817719,-0.822556,-0.736523,0.768594,0.024453
2,3,88,1761,0.978518,-0.803559,-0.836227,0.700977,0.581094,-0.725547
2,3,89,1781,0.979495,-0.800141,-0.830368,0.013477,1.956094,-0.350547
2,3,90,1801,0.985354,-0.805024,-0.814255,-0.924023,1.518594,-0.288047
2,3,91,1821,0.985354,-0.809418,-0.812790,-3.049023,0.643594,-0.225547
2,3,92,1841,0.986819,-0.792328,-0.810349,-1.424023,0.643594,-0.663047
2,3,93,1861,0.991702,-0.785493,-0.801071,0.950977,0.143594,0.086953
2,3,94,1881,0.984866,-0.797211,-0.809860,1.638477,-0.856406,0.774453
2,3,95,1901,0.975100,-0.804047,-0.826462,-0.611523,-0.856406,0.899453
2,3,96,1921,0.978030,-0.798188,-0.821579,-1.049023,-0.543906,0.836953
2,3,97,1941,0.977542,-0.800629,-0.823532,-0.611523,-1.168906,0.836953
2,3,98,1961,0.973147,-0.807953,-0.825485,-3.236523,-0.731406,1.211953
2,3,99,1981,0.970706,-0.805512,-0.821091,-2.486523,-0.418906,0.774453
2,4,0,0,0.944827,-0.787446,-0.983200,7.575976,1.706094,-4.538047
2,4,1,21,0.926272,-0.763032,-1.011032,8.950976,8.456094,-5.788047
2,4,2,41,0.917971,-0.721528,-1.004684,9.450976,15.518594,-5.788047
2,4,3,61,0.907229,-0.693696,-0.993942,12.825976,35.331093,-5.475547
2,4,4,81,0.909670,-0.666352,-0.979782,15.200976,25.831093,-6.913047
2,4,5,101,0.931155,-0.607758,-0.909470,14.888476,36.768593,-9.038047
2,4,6,121,0.959475,-0.499360,-0.783005,10.013476,44.331093,-7.725547
2,4,7,141,0.978518,-0.353364,-0.688766,17.388477,46.393593,-4.475547
2,4,8,161,0.957522,-0.260590,-0.647751,28.013477,49.206093,14.336953
2,4,9,181,0.931643,-0.291840,-0.611618,33.138477,55.581093,34.149452
2,4,10,201,0.946780,-0.372895,-0.524216,31.388477,63.331093,51.149452
2,4,11,221,0.984866,-0.448578,-0.380661,27.575977,62.768593,66.524452
2,4,12,241,1.001467,-0.576508,-0.309860,17.388477,56.456093,85.711952
2,4,13,261,0.966799,-0.750825,-0.273727,-11.736524,51.581093,104.461952
2,4,14,281,0.968264,-0.887055,-0.193161,-27.299023,43.143593,114.899452
2,4,15,301,0.966311,-1.057953,-0.137497,-24.424023,23.143593,124.461952
2,4,16,321,0.951663,-1.270356,-0.161911,-14.299024,-3.543906,122.274452
2,4,17,341,0.914553,-1.468598,-0.250290,-8.986524,-29.793907,103.086952
2,4,18,361,0.868655,-1.597993,-0.400192,-18.299023,-45.543907,77.711952
2,4,19,381,0.834963,-1.640961,-0.530075,-46.049023,-47.668907,52.149452
2,4,20,401,0.836917,-1.612641,-0.595505,-77.861526,-44.293907,25.961952
2,4,21,421,0.858889,-1.520844,-0.636032,-89.736526,-48.856407,5.711953
2,4,22,441,0.846682,-1.472016,-0.738083,-84.674026,-60.731407,-2.600547
2,4,23,461,0.826663,-1.480317,-0.849899,-76.361526,-67.043907,-12.475547
2,4,24,481,0.832034,-1.470551,-0.923141,-71.424026,-69.043907,-27.225548
2,4,25,501,0.840823,-1.427582,-1.007126,-68.486526,-72.918907,-43.225548
2,4,26,521,0.841799,-1.353852,-1.122360,-63.174023,-72.793907,-56.600548
2,4,27,541,0.851077,-1.264008,-1.227829,-65.736526,-63.543907,-60.850548
2,4,28,561,0.873049,-1.179536,-1.281052,-69.299026,-52.356407,-57.663048
2,4,29,581,0.895022,-1.125825,-1.311325,-58.611523,-44.231407,-53.413048
2,4,30,601,0.918948,-1.110688,-1.338181,-43.299023,-36.918907,-48.725548
2,4,31,621,0.925784,-1.131684,-1.351852,-20.486523,-29.106407,-50.225548
2,4,32,641,0.929690,-1.092133,-1.354294,1.450977,-21.043907,-59.350548
2,4,33,661,0.952151,-0.995942,-1.346970,19.075977,-11.106406,-65.913048
2,4,34,681,0.960452,-0.883637,-1.311813,21.825977,2.393594,-59.350548
2,4,35,701,0.958010,-0.840668,-1.241989,16.013477,14.643594,-51.788048
2,4,36,721,0.957034,-0.794770,-1.184372,15.138476,21.768593,-49.100548
2,4,37,741,0.937502,-0.737153,-1.148727,18.513477,23.581093,-48.100548
2,4,38,761,0.916506,-0.690278,-1.134567,30.138477,24.893593,-48.288048
2,4,39,781,0.896487,-0.643403,-1.119919,43.575977,29.206093,-47.413048
2,4,40,801,0.885745,-0.606293,-1.092087,48.013477,33.831093,-43.663048
2,4,41,821,0.865725,-0.569672,-1.043747,52.575977,41.081093,-41.038048
2,4,42,841,0.872561,-0.533051,-0.951462,45.325977,49.581093,-38.725548
2,4,43,861,0.907229,-0.472016,-0.829880,38.450977,54.893593,-31.413048
2,4,44,881,0.910647,-0.457368,-0.761032,35.638477,51.893593,-19.975548
2,4,45,901,0.925295,-0.482758,-0.680954,39.138477,50.018593,-12.600547
2,4,46,921,0.939456,-0.532075,-0.608200,40.513477,47.206093,-3.475547
2,4,47,941,0.932131,-0.602387,-0.581345,40.763477,41.393593,2.899453
2,4,48,961,0.957522,-0.664887,-0.528122,38.200977,36.268593,2.524453
2,4,49,981,0.979495,-0.709809,-0.490524,32.075977,29.706093,5.899453
2,4,50,1001,0.997561,-0.798188,-0.479294,16.013477,22.143593,9.586953
2,4,51,1021,0.995608,-0.848481,-0.503220,4.325976,15.518594,5.336953
2,4,52,1041,1.021487,-0.831391,-0.507126,0.263477,7.331094,-3.475547
2,4,53,1061,1.037112,-0.805024,-0.539841,3.325977,-3.543906,-5.163047
2,4,54,1081,1.030764,-0.832368,-0.611130,5.325976,-9.731406,-4.850547
2,4,55,1101,1.024416,-0.826508,-0.659470,2.700977,-13.043906,-5.850547
2,4,56,1121,1.020022,-0.824555,-0.712204,-1.424023,-14.543906,-5.288047
2,4,57,1141,1.007815,-0.822602,-0.782516,-5.486524,-14.481406,-5.663047
2,4,58,1161,0.995120,-0.811860,-0.830368,-6.049024,-11.918906,-5.725547
2,4,59,1181,0.993167,-0.802582,-0.845505,-7.486524,-8.793906,-5.975547
2,4,60,1201,0.994631,-0.781586,-0.832809,-6.736524,-7.231406,-6.788047
2,4,61,1221,0.992678,-0.753266,-0.830856,-4.549024,-7.731406,-5.475547
2,4,62,1241,0.980959,-0.744477,-0.855270,-3.424023,-6.293906,-2.663047
2,4,63,1261,0.975588,-0.760590,-0.850876,-4.736524,-3.418906,-0.788047
2,4,64,1281,0.976077,-0.767426,-0.848923,-0.486523,-3.106406,-1.600547
2,4,65,1301,0.961917,-0.763520,-0.867477,-0.986523,-0.918906,-0.975547
2,4,66,1321,0.967776,-0.771821,-0.839157,-4.861524,1.643594,-0.038047
2,4,67,1341,0.977053,-0.764008,-0.813278,-1.924023,0.143594,-0.100547
2,4,68,1361,0.975100,-0.772309,-0.817673,0.950977,-1.543906,0.086953
2,4,69,1381,0.973147,-0.795258,-0.818161,3.200977,-1.606406,-0.725547
2,4,70,1401,0.970706,-0.797211,-0.816208,3.575977,-0.856406,-1.850547
2,4,71,1421,0.977542,-0.803559,-0.804489,9.075976,-2.106406,-2.663047
2,4,72,1441,0.986819,-0.757661,-0.802536,7.638476,-3.543906,-3.350547
2,4,73,1461,0.987795,-0.751801,-0.790817,3.700977,-4.106406,-1.600547
2,4,74,1481,0.975588,-0.753754,-0.808884,0.575977,-4.481406,-0.100547
2,4,75,1501,0.964846,-0.750825,-0.825485,-6.111524,-2.668906,0.399453
2,4,76,1521,0.965823,-0.755707,-0.824509,-6.736524,-0.981406,1.336953
2,4,77,1541,0.968264,-0.770356,-0.822067,-3.736523,-0.918906,0.899453
2,4,78,1561,0.972170,-0.777680,-0.821579,-0.361523,-1.168906,0.586953
2,4,79,1581,0.966311,-0.781586,-0.825485,-2.799023,-0.918906,0.899453
2,4,80,1601,0.977053,-0.774262,-0.818161,-3.549023,-1.043906,0.274453
2,4,81,1621,0.973147,-0.765961,-0.827438,-5.049024,-1.356406,1.149453
2,4,82,1641,0.966311,-0.774262,-0.824509,-5.174024,-0.981406,1.899453
2,4,83,1661,0.961428,-0.781586,-0.820602,-2.299023,-1.793906,0.836953
2,4,84,1681,0.968752,-0.781586,-0.826950,-0.736523,-2.606406,-0.100547
2,4,85,1701,0.964846,-0.786469,-0.840622,-0.611523,-2.356406,0.024453
2,4,86,1721,0.973635,-0.787446,-0.832321,-1.861523,-1.168906,-0.163047
2,4,87,1741,0.977053,-0.786957,-0.836227,-1.736523,-1.293906,-0.975547
2,4,88,1761,0.976565,-0.772309,-0.834274,-3.424023,-0.668906,-1.225547
2,4,89,1781,0.979495,-0.767914,-0.826462,-4.361524,-0.293906,0.149453
2,4,90,1801,0.972659,-0.773774,-0.829391,-1.111523,-0.231406,-0.600547
2,4,91,1821,0.979006,-0.767914,-0.825974,1.450977,0.018594,-1.538047
2,4,92,1841,0.985354,-0.755219,-0.820114,3.388477,-0.356406,-1.350547
2,4,93,1861,0.983889,-0.745942,-0.825485,3.513477,-0.481406,0.024453
2,4,94,1881,0.975100,-0.751313,-0.833298,3.888477,0.081094,0.961953
2,4,95,1901,0.969729,-0.754731,-0.826950,0.388477,1.706094,1.649453
2,4,96,1921,0.976565,-0.789399,-0.812790,-1.674023,0.393594,2.399453
2,4,97,1941,0.971194,-0.786469,-0.818161,-2.361523,0.956094,0.586953
2,4,98,1961,0.979006,-0.771332,-0.817673,-1.611523,0.393594,0.899453
2,4,99,1981,0.970706,-0.769868,-0.816696,-0.861523,0.331094,1.399453
2,5,0,0,0.949221,-0.776703,-1.006149,7.513476,-5.356406,-4.100547
2,5,1,21,0.921877,-0.757661,-1.081833,7.138476,-0.168906,-6.850547
2,5,2,41,0.903323,-0.731782,-1.091110,8.263476,8.768594,-8.163047
2,5,3,61,0.892581,-0.669282,-1.074509,15.513476,17.581093,-9.975547
2,5,4,81,0.890139,-0.607270,-1.022263,20.450977,28.081093,-10.725547
2,5,5,101,0.893069,-0.545746,-0.949020,22.263477,37.393593,-12.538047
2,5,6,121,0.918459,-0.451508,-0.855759,24.638477,41.206093,-12.350547
2,5,7,141,0.937502,-0.347993,-0.821091,36.013477,44.206093,-3.913047
2,5,8,161,0.940920,-0.291840,-0.749313,35.700977,56.581093,16.524452
2,5,9,181,0.909670,-0.326508,-0.603806,36.513477,63.393593,32.586952
2,5,10,201,0.922366,-0.353852,-0.480270,47.013477,61.518593,36.961952
2,5,11,221,0.941897,-0.317231,-0.385544,53.200977,57.956093,41.336952
2,5,12,241,0.987307,-0.359711,-0.272263,33.825977,57.081093,66.461952
2,5,13,261,1.004885,-0.541840,-0.126266,1.325977,55.081093,95.649452
2,5,14,281,1.021487,-0.776215,-0.034958,-20.174023,41.331093,113.274452
2,5,15,301,0.983889,-0.958832,-0.054489,-19.861523,16.143593,114.274452
2,5,16,321,0.976077,-1.108246,-0.157028,-21.861523,-5.418906,110.961952
2,5,17,341,0.937014,-1.279145,-0.274704,-45.486523,-21.981407,102.524452
2,5,18,361,0.897952,-1.396821,-0.398727,-63.174023,-36.481407,87.086952
2,5,19,381,0.891604,-1.466645,-0.496384,-72.799026,-47.981407,62.711952
2,5,20,401,0.859377,-1.471528,-0.629196,-84.924026,-59.418907,43.086952
2,5,21,421,0.843752,-1.472504,-0.749313,-93.924026,-61.481407,23.086952
2,5,22,441,0.847170,-1.425629,-0.829880,-93.549026,-61.606407,12.336953
2,5,23,461,0.840823,-1.429536,-0.933395,-92.611526,-59.668907,11.524453
2,5,24,481,0.819827,-1.480317,-1.022751,-97.111526,-52.356407,6.649453
2,5,25,501,0.819338,-1.517426,-1.069626,-106.111526,-45.793907,-8.413047
2,5,26,521,0.840823,-1.468110,-1.111618,-99.361526,-46.168907,-27.975548
2,5,27,541,0.855471,-1.402192,-1.179001,-87.674026,-49.606407,-39.975548
2,5,28,561,0.857424,-1.348481,-1.259567,-65.424026,-53.481407,-49.475548
2,5,29,581,0.853030,-1.294770,-1.371872,-33.736523,-50.918907,-57.413048
2,5,30,601,0.841799,-1.235688,-1.460251,-16.736523,-40.043907,-65.725548
2,5,31,621,0.842288,-1.165864,-1.480270,-6.924024,-19.668907,-69.850548
2,5,32,641,0.864260,-1.096039,-1.420212,-4.486524,0.018594,-74.288048
2,5,33,661,0.913577,-1.009614,-1.314743,2.638477,11.956094,-80.600548
2,5,34,681,0.951174,-0.849457,-1.198532,10.200976,17.768593,-86.475548
2,5,35,701,0.991213,-0.683442,-1.101364,22.325977,17.831093,-81.413048
2,5,36,721,0.989260,-0.600434,-1.074509,25.513477,18.831093,-66.413048
2,5,37,741,0.967288,-0.565766,-1.051071,29.825977,20.206093,-58.163048
2,5,38,761,0.954104,-0.506684,-1.049118,42.263477,19.393593,-56.788048
2,5,39,781,0.935061,-0.455903,-1.070602,49.700977,23.518593,-46.788048
2,5,40,801,0.900881,-0.439301,-1.048630,43.450977,34.768593,-33.475548
2,5,41,821,0.887698,-0.454926,-0.973923,36.700977,44.081093,-23.788048
2,5,42,841,0.890627,-0.464692,-0.906052,42.075977,48.331093,-17.600548
2,5,43,861,0.882815,-0.486176,-0.862595,47.575977,48.956093,-13.288047
2,5,44,881,0.885745,-0.509614,-0.798630,53.700977,50.831093,-10.163047
2,5,45,901,0.900881,-0.553559,-0.692673,51.825977,51.581093,-4.663047
2,5,46,921,0.935061,-0.609223,-0.582321,46.013477,51.206093,-0.163047
2,5,47,941,0.939944,-0.670746,-0.497849,28.263477,44.831093,8.336953
2,5,48,961,0.967776,-0.761078,-0.456345,20.138477,42.768593,11.024453
2,5,49,981,0.995608,-0.809418,-0.416306,10.638476,34.956093,9.461953
2,5,50,1001,1.023440,-0.825043,-0.383102,2.888477,20.706093,5.461953
2,5,51,1021,1.052737,-0.839692,-0.385056,14.575976,1.268594,-3.850547
2,5,52,1041,1.040530,-0.836274,-0.481247,22.825977,-13.418906,-7.100547
2,5,53,1061,1.028323,-0.812836,-0.581833,14.200976,-18.106407,-8.100547
2,5,54,1081,1.026858,-0.787446,-0.648727,4.825976,-19.168907,-6.725547
2,5,55,1101,1.015627,-0.777680,-0.730270,1.200977,-19.231407,-5.225547
2,5,56,1121,0.999026,-0.774750,-0.804489,-2.611523,-15.481406,-2.663047
2,5,57,1141,0.983889,-0.782563,-0.836716,-6.799024,-10.793906,-1.975547
2,5,58,1161,0.980959,-0.781098,-0.852829,-5.486524,-6.793906,-1.975547
2,5,59,1181,0.974124,-0.778657,-0.854294,-9.424024,-5.481406,-1.350547
2,5,60,1201,0.976077,-0.780610,-0.848923,-12.174024,-4.606406,-1.350547
2,5,61,1221,0.967776,-0.760590,-0.858688,-8.361524,-2.981406,-2.225547
2,5,62,1241,0.972170,-0.743012,-0.850876,-1.549023,-1.418906,-2.538047
2,5,63,1261,0.965334,-0.756196,-0.847458,-0.486523,0.643594,-0.163047
2,5,64,1281,0.964846,-0.767426,-0.826462,-3.611523,2.206094,0.211953
2,5,65,1301,0.973635,-0.753754,-0.806931,-3.486523,0.956094,-0.413047
2,5,66,1321,0.975588,-0.744965,-0.811325,-0.236523,-1.356406,0.524453
2,5,67,1341,0.967288,-0.759125,-0.818161,1.325977,-1.981406,1.274453
2,5,68,1361,0.965334,-0.765473,-0.814255,1.638477,-1.606406,0.899453
2,5,69,1381,0.961428,-0.773286,-0.815231,0.700977,-0.606406,0.524453
2,5,70,1401,0.961917,-0.770844,-0.812302,-3.611523,-0.168906,0.524453
2,5,71,1421,0.964358,-0.768891,-0.795700,-3.049023,-0.543906,0.649453
2,5,72,1441,0.957522,-0.767426,-0.798630,2.450977,-1.606406,-0.288047
2,5,73,1461,0.960940,-0.776215,-0.805466,1.888477,-1.418906,-1.163047
2,5,74,1481,0.963870,-0.780121,-0.809372,-1.861523,-0.356406,-0.788047
2,5,75,1501,0.967776,-0.786469,-0.800583,-3.174023,-0.168906,-1.163047
2,5,76,1521,0.976565,-0.783539,-0.792770,-0.549023,0.018594,-2.725547
2,5,77,1541,0.984866,-0.771821,-0.789352,0.200977,-1.356406,-2.663047
2,5,78,1561,0.979983,-0.771332,-0.794724,-1.424023,-2.043906,-2.100547
2,5,79,1581,0.972659,-0.760102,-0.810837,-1.924023,-1.418906,-1.913047
2,5,80,1601,0.971682,-0.757172,-0.811325,-2.986523,-0.668906,-1.788047
2,5,81,1621,0.972659,-0.756684,-0.807419,-2.049023,-1.293906,-1.538047
2,5,82,1641,0.972659,-0.758637,-0.817673,-1.361523,-1.606406,-1.538047
2,5,83,1661,0.973147,-0.742036,-0.817673,0.450977,-1.168906,-1.288047
2,5,84,1681,0.969729,-0.745453,-0.822556,0.638477,-0.918906,-0.288047
2,5,85,1701,0.966799,-0.750336,-0.821579,0.450977,0.143594,0.524453
2,5,86,1721,0.970217,-0.771332,-0.814255,-1.861523,0.393594,0.774453
2,5,87,1741,0.969729,-0.773286,-0.807419,-2.799023,0.581094,0.211953
2,5,88,1761,0.968264,-0.764008,-0.801559,-0.736523,-0.356406,-0.288047
2,5,89,1781,0.964358,-0.762055,-0.813766,0.888477,-0.731406,-0.538047
2,5,90,1801,0.960940,-0.769868,-0.812790,-1.486523,-0.106406,-0.475547
2,5,91,1821,0.963381,-0.765473,-0.807907,-1.924023,0.206094,-1.038047
2,5,92,1841,0.960940,-0.750336,-0.806931,-1.799023,0.206094,-1.038047
2,5,93,1861,0.964358,-0.756196,-0.802536,-1.049023,0.393594,-0.663047
2,5,94,1881,0.968752,-0.764496,-0.802536,0.450977,-0.668906,-1.538047
2,5,95,1901,0.963870,-0.767426,-0.818649,0.388477,-0.543906,-1.725547
2,5,96,1921,0.968264,-0.769379,-0.815720,0.200977,0.768594,-2.288047
2,5,97,1941,0.975588,-0.765473,-0.799606,-1.361523,1.018594,-2.413047
2,5,98,1961,0.979006,-0.765473,-0.787399,-4.361524,-0.043906,-2.538047
2,5,99,1981,0.992190,-0.741059,-0.800095,-3.299023,-1.168906,-2.475547
2,6,0,0,0.964358,-0.806000,-0.968063,2.763477,-2.981406,-5.725547
2,6,1,21,0.956057,-0.817231,-1.017380,8.325976,-1.731406,-10.600547
2,6,2,41,0.929690,-0.796723,-1.086716,11.138476,-2.543906,-15.100547
2,6,3,61,0.910647,-0.748871,-1.144821,14.638476,-0.918906,-19.850548
2,6,4,81,0.903323,-0.641938,-1.147751,20.763477,15.518594,-22.350548
2,6,5,101,0.904299,-0.542328,-1.045212,18.138477,36.893593,-15.725547
2,6,6,121,0.914065,-0.477387,-0.870407,9.825976,54.081093,-3.600547
2,6,7,141,0.923342,-0.444672,-0.710251,-0.799023,66.206093,11.774453
2,6,8,161,0.913577,-0.443696,-0.625290,-15.174024,73.706093,27.649452
2,6,9,181,0.900881,-0.438813,-0.576462,-12.674024,79.893593,33.086952
2,6,10,201,0.898440,-0.388520,-0.528610,0.138477,87.831093,37.836952
2,6,11,221,0.891116,-0.377289,-0.424606,22.513477,88.206093,44.461952
2,6,12,241,0.861819,-0.402680,-0.324509,39.888477,82.206093,55.586952
2,6,13,261,0.851565,-0.478852,-0.228317,57.263477,68.331093,61.711952
2,6,14,281,0.850588,-0.579438,-0.240524,73.888474,60.143593,64.274452
2,6,15,301,0.854006,-0.676606,-0.260056,50.763477,58.018593,68.211952
2,6,16,321,0.896975,-0.773774,-0.206345,18.200977,52.768593,71.274452
2,6,17,341,0.944338,-0.819672,-0.142868,-0.236523,36.831093,72.024452
2,6,18,361,0.966799,-0.919770,-0.100388,6.950976,9.956094,72.961952
2,6,19,381,0.933108,-0.997407,-0.161423,26.200977,-13.731406,68.711952
2,6,20,401,0.896975,-1.077973,-0.271774,34.950977,-29.231407,64.086952
2,6,21,421,0.886721,-1.167328,-0.361130,18.700977,-34.106407,57.086952
2,6,22,441,0.884280,-1.240082,-0.397263,-16.549023,-33.981407,52.211952
2,6,23,461,0.890139,-1.323090,-0.400192,-50.674023,-37.543907,41.711952
2,6,24,481,0.907717,-1.332368,-0.437790,-71.049026,-43.293907,24.211952
2,6,25,501,0.926760,-1.293305,-0.488083,-94.486526,-51.981407,13.774453
2,6,26,521,0.928225,-1.243012,-0.553513,-86.799026,-65.731407,6.649453
2,6,27,541,0.910647,-1.248871,-0.643845,-72.236526,-74.481407,5.961953
2,6,28,561,0.894534,-1.334321,-0.728317,-67.424026,-77.856407,5.774453
2,6,29,581,0.901858,-1.397797,-0.804977,-72.111526,-79.981407,-1.350547
2,6,30,601,0.907229,-1.405610,-0.874802,-76.549026,-83.043907,-12.163047
2,6,31,621,0.901370,-1.359223,-0.996872,-79.736526,-81.293907,-19.288048
2,6,32,641,0.881838,-1.347993,-1.099411,-91.986526,-72.418907,-20.288048
2,6,33,661,0.877444,-1.350922,-1.151657,-100.049026,-60.918907,-26.600548
2,6,34,681,0.900393,-1.331391,-1.160934,-88.486526,-58.356407,-43.225548
2,6,35,701,0.911135,-1.264496,-1.203415,-60.861523,-62.543907,-56.850548
2,6,36,721,0.891604,-1.193696,-1.288864,-37.924023,-65.356407,-63.975548
2,6,37,741,0.875979,-1.131196,-1.375290,-22.111523,-60.606407,-72.350548
2,6,38,761,0.875002,-1.031586,-1.428513,-5.736524,-47.168907,-85.163048
2,6,39,781,0.891116,-0.851411,-1.431442,10.075976,-27.981407,-92.788048
2,6,40,801,0.908694,-0.690766,-1.387009,15.388476,-9.731406,-83.538048
2,6,41,821,0.916995,-0.592621,-1.308884,13.075976,1.581094,-71.350548
2,6,42,841,0.894534,-0.542328,-1.306442,31.325977,11.018594,-60.413048
2,6,43,861,0.851077,-0.495453,-1.317184,36.075977,27.956093,-51.725548
2,6,44,881,0.835940,-0.426606,-1.247849,33.013477,42.393593,-42.913048
2,6,45,901,0.854495,-0.401215,-1.134567,34.700977,53.706093,-31.975548
2,6,46,921,0.856448,-0.409028,-1.044235,37.013477,64.581093,-23.538048
2,6,47,941,0.880374,-0.442231,-0.887009,21.513477,72.018593,-12.163047
2,6,48,961,0.906741,-0.509614,-0.736130,15.200976,74.331093,-1.100547
2,6,49,981,0.924319,-0.579926,-0.642868,18.700977,71.456093,3.336953
2,6,50,1001,0.948245,-0.596039,-0.541306,4.138476,64.956093,8.211953
2,6,51,1021,0.982913,-0.645356,-0.426559,-6.299024,56.956093,11.586953
2,6,52,1041,1.000002,-0.724946,-0.368942,3.763477,39.081093,10.774453
2,6,53,1061,1.006838,-0.775239,-0.383102,14.575976,22.331093,6.274453
2,6,54,1081,1.002444,-0.818207,-0.433884,15.263476,11.268594,1.274453
2,6,55,1101,1.004397,-0.816254,-0.490036,12.263476,2.706094,-4.413047
2,6,56,1121,1.003420,-0.777680,-0.558395,5.325976,-0.106406,-4.538047
2,6,57,1141,1.006350,-0.778168,-0.609665,-7.674024,-2.106406,-2.600547
2,6,58,1161,1.004397,-0.774750,-0.644821,-7.986524,-4.793906,-3.163047
2,6,59,1181,0.998538,-0.773286,-0.700974,-0.799023,-9.481406,-4.850547
2,6,60,1201,0.983401,-0.772797,-0.782516,5.575976,-10.106406,-5.913047
2,6,61,1221,0.975100,-0.769379,-0.813278,0.950977,-5.731406,-4.725547
2,6,62,1241,0.975100,-0.769868,-0.815231,-3.236523,-3.356406,-3.725547
2,6,63,1261,0.972659,-0.764008,-0.832321,-3.299023,-1.918906,-4.288047
2,6,64,1281,0.972170,-0.751313,-0.843063,-3.361523,-0.106406,-3.975547
2,6,65,1301,0.979983,-0.750825,-0.818649,-2.799023,0.831094,-3.350547
2,6,66,1321,0.981936,-0.740571,-0.805466,0.888477,0.456094,-2.850547
2,6,67,1341,0.974124,-0.736664,-0.805954,1.763477,-0.043906,-1.225547
2,6,68,1361,0.967776,-0.740571,-0.813766,1.763477,0.456094,0.086953
2,6,69,1381,0.965823,-0.738618,-0.799606,1.013477,1.331094,0.586953
2,6,70,1401,0.968752,-0.756196,-0.785934,1.825977,1.081094,1.649453
2,6,71,1421,0.958499,-0.766938,-0.783005,3.575977,0.518594,0.649453
2,6,72,1441,0.958987,-0.772797,-0.775192,2.700977,-0.043906,0.024453
2,6,73,1461,0.955569,-0.776703,-0.769821,1.888477,-0.231406,-0.788047
2,6,74,1481,0.961917,-0.769379,-0.759567,0.138477,-0.293906,-2.288047
2,6,75,1501,0.959963,-0.763520,-0.755661,0.763477,-0.543906,-3.100547
2,6,76,1521,0.962893,-0.749848,-0.754684,-0.049023,-0.731406,-3.350547
2,6,77,1541,0.964846,-0.752778,-0.761032,-1.174023,-0.293906,-3.475547
2,6,78,1561,0.971194,-0.740082,-0.753708,-4.299024,-0.043906,-3.600547
2,6,79,1581,0.979983,-0.732758,-0.741501,-3.361523,-0.668906,-3.475547
2,6,80,1601,0.978518,-0.725434,-0.752243,-1.674023,-3.168906,-2.663047
2,6,81,1621,0.972659,-0.723969,-0.787399,-0.049023,-3.918906,-1.163047
2,6,82,1641,0.961917,-0.743500,-0.804001,-1.299023,-3.231406,0.461953
2,6,83,1661,0.953616,-0.747895,-0.803024,-1.736523,-1.918906,0.899453
2,6,84,1681,0.948245,-0.747895,-0.789352,-3.486523,-1.043906,1.899453
2,6,85,1701,0.949709,-0.768891,-0.783493,-1.861523,-2.106406,2.899453
2,6,86,1721,0.947268,-0.802094,-0.793259,0.200977,-3.043906,1.211953
2,6,87,1741,0.956545,-0.811860,-0.800583,-1.236523,-3.043906,-0.163047
2,6,88,1761,0.956057,-0.801118,-0.794235,-0.986523,-3.043906,-1.788047
2,6,89,1781,0.961428,-0.764985,-0.795212,2.575977,-3.731406,-3.225547
2,6,90,1801,0.941409,-0.759614,-0.816696,2.450977,-4.731406,-2.975547
2,6,91,1821,0.941409,-0.766938,-0.837692,0.950977,-3.043906,-3.788047
2,6,92,1841,0.961428,-0.771821,-0.841110,-0.799023,-0.606406,-3.725547
2,6,93,1861,0.986819,-0.767426,-0.822067,-0.861523,1.143594,-5.100547
2,6,94,1881,1.009768,-0.736664,-0.802048,-1.361523,1.268594,-6.163047
2,6,95,1901,1.023928,-0.697114,-0.769333,-1.361523,0.831094,-5.788047
2,6,96,1921,1.027346,-0.653657,-0.738083,-2.549023,-1.356406,-1.038047
2,6,97,1941,1.011233,-0.667328,-0.739059,-2.361523,-5.793906,4.524453
2,6,98,1961,0.982913,-0.700043,-0.786423,-0.861523,-6.918906,6.711953
2,6,99,1981,0.964358,-0.731782,-0.803513,-5.736524,-4.856406,6.961953
2,7,0,0,0.992190,-0.836762,-0.940231,5.638476,-11.606406,-7.225547
2,7,1,21,0.962893,-0.835297,-1.061325,13.013476,-14.668906,-11.788047
2,7,2,41,0.916995,-0.818696,-1.126755,18.763477,-11.793906,-17.663048
2,7,3,61,0.868655,-0.773774,-1.173630,25.638477,-9.043906,-25.475548
2,7,4,81,0.818362,-0.703950,-1.243942,29.888477,-0.293906,-33.538048
2,7,5,101,0.821780,-0.547211,-1.264938,29.638477,34.456093,-36.913048
2,7,6,121,0.844729,-0.321137,-1.119919,21.138477,73.581093,-28.600548
2,7,7,141,0.908206,-0.035493,-0.863571,14.388476,105.831093,-1.975547
2,7,8,161,0.911624,0.103179,-0.647263,-1.736523,125.581093,35.399452
2,7,9,181,0.950198,0.021636,-0.408005,-7.486524,129.768600,74.836952
2,7,10,201,0.982913,-0.116059,-0.141403,21.263477,113.518593,95.524452
2,7,11,221,0.984377,-0.254243,0.042679,77.388474,83.893593,103.524452
2,7,12,241,0.959963,-0.352387,0.123245,111.325974,52.893593,107.461952
2,7,13,261,0.918948,-0.515961,0.132034,118.075974,29.956093,118.336952
2,7,14,281,0.882815,-0.746918,0.029495,75.700974,17.393593,134.524460
2,7,15,301,0.826174,-0.949555,-0.050095,11.700976,6.206094,132.399460
2,7,16,321,0.811038,-1.097993,-0.098434,-16.361523,-8.356406,127.399452
2,7,17,341,0.785159,-1.264496,-0.205856,-32.799023,-30.856407,116.774452
2,7,18,361,0.737307,-1.446625,-0.356735,-38.736523,-47.793907,98.274452
2,7,19,381,0.728030,-1.594575,-0.508102,-54.986523,-54.356407,74.086952
2,7,20,401,0.740725,-1.714692,-0.647263,-85.799026,-63.356407,53.274452
2,7,21,421,0.747561,-1.776215,-0.794724,-98.486526,-68.418907,23.399452
2,7,22,441,0.748049,-1.738129,-0.909470,-105.611526,-62.481407,4.336953
2,7,23,461,0.770022,-1.739594,-0.967087,-128.049026,-58.543907,-7.788047
2,7,24,481,0.801760,-1.737641,-1.021774,-123.299026,-61.981407,-32.100548
2,7,25,501,0.809084,-1.612153,-1.130661,-102.549026,-65.356407,-55.663048
2,7,26,521,0.806155,-1.472993,-1.250778,-91.236526,-62.856407,-67.163048
2,7,27,541,0.810549,-1.352875,-1.328903,-83.674026,-53.481407,-71.038048
2,7,28,561,0.816409,-1.264496,-1.365036,-77.486526,-41.606407,-74.850548
2,7,29,581,0.836428,-1.207368,-1.378220,-64.174026,-30.981407,-80.038048
2,7,30,601,0.870608,-1.139985,-1.353806,-49.674023,-20.418907,-90.538048
2,7,31,621,0.893557,-1.000336,-1.324509,-21.174023,-14.481406,-104.913048
2,7,32,641,0.923342,-0.823090,-1.298630,-0.486523,-5.918906,-105.225548
2,7,33,661,0.947756,-0.696625,-1.248825,8.700976,4.831094,-97.538048
2,7,34,681,0.947268,-0.553071,-1.178513,3.700977,16.831093,-80.850548
2,7,35,701,0.979495,-0.494477,-1.054977,-9.424024,24.768593,-62.475548
2,7,36,721,0.969729,-0.459321,-0.987595,-2.861523,27.143593,-52.975548
2,7,37,741,0.961428,-0.390961,-0.959274,24.513477,24.893593,-52.100548
2,7,38,761,0.953127,-0.308442,-0.961227,48.513477,27.143593,-46.288048
2,7,39,781,0.934573,-0.258637,-0.919724,59.950977,32.581093,-36.538048
2,7,40,801,0.942385,-0.238129,-0.845993,66.138474,42.581093,-25.163048
2,7,41,821,0.945803,-0.290864,-0.758102,46.325977,49.393593,-2.163047
2,7,42,841,0.923342,-0.443696,-0.661423,29.325977,61.581093,16.211952
2,7,43,861,0.923342,-0.549164,-0.570114,25.263477,65.456093,23.961952
2,7,44,881,0.926760,-0.685883,-0.490524,24.513477,56.831093,31.836952
2,7,45,901,0.944827,-0.818207,-0.439743,29.950977,50.456093,27.649452
2,7,46,921,0.948733,-0.880219,-0.394821,29.263477,35.268593,16.836952
2,7,47,941,0.959963,-0.947114,-0.414841,18.075977,25.143593,10.399453
2,7,48,961,0.970217,-0.983246,-0.445114,-1.111523,17.206093,1.086953
2,7,49,981,0.993655,-0.930512,-0.460251,-11.986524,7.393594,-8.038047
2,7,50,1001,1.024416,-0.843110,-0.481735,-11.736524,-5.543906,-12.413047
2,7,51,1021,1.012209,-0.831391,-0.568161,-1.424023,-18.043907,-13.038047
2,7,52,1041,0.994631,-0.833344,-0.680954,1.450977,-23.356407,-15.163047
2,7,53,1061,0.990725,-0.807953,-0.743942,-4.361524,-23.481407,-17.100548
2,7,54,1081,0.977053,-0.758149,-0.804001,-7.799024,-21.918907,-17.288048
2,7,55,1101,0.966799,-0.713227,-0.861618,-8.361524,-18.543907,-16.913048
2,7,56,1121,0.959475,-0.675141,-0.892868,-4.486524,-14.293906,-15.038047
2,7,57,1141,0.966799,-0.653657,-0.900192,-0.799023,-10.043906,-10.350547
2,7,58,1161,0.965823,-0.680512,-0.898239,-2.111523,-6.668906,-3.100547
2,7,59,1181,0.952639,-0.708344,-0.902634,-0.236523,-1.981406,-0.663047
2,7,60,1201,0.961917,-0.716157,-0.872360,-0.986523,2.581094,-0.038047
2,7,61,1221,0.967288,-0.727875,-0.826950,-1.799023,2.893594,1.086953
2,7,62,1241,0.965334,-0.739106,-0.810349,0.763477,1.393594,1.274453
2,7,63,1261,0.963870,-0.751313,-0.801071,1.388477,0.268594,1.336953
2,7,64,1281,0.962893,-0.755219,-0.797165,3.763477,-0.231406,-0.600547
2,7,65,1301,0.971682,-0.739106,-0.801559,3.575977,0.206094,-1.725547
2,7,66,1321,0.971682,-0.735200,-0.797653,2.013477,1.081094,-1.288047
2,7,67,1341,0.965823,-0.735688,-0.795700,0.575977,2.018594,-1.038047
2,7,68,1361,0.965334,-0.744477,-0.785934,-0.361523,3.206094,-1.413047
2,7,69,1381,0.967288,-0.737641,-0.775681,0.138477,3.331094,-1.913047
2,7,70,1401,0.960452,-0.735200,-0.769333,0.638477,3.081094,-2.100547
2,7,71,1421,0.956545,-0.729828,-0.776169,0.763477,2.831094,-1.850547
2,7,72,1441,0.957034,-0.728852,-0.778610,-1.049023,3.956094,-2.725547
2,7,73,1461,0.970217,-0.704438,-0.762009,-1.549023,4.768594,-2.100547
2,7,74,1481,0.968264,-0.696137,-0.743454,-1.861523,4.393594,-0.163047
2,7,75,1501,0.962893,-0.705903,-0.731735,-1.111523,3.143594,1.086953
2,7,76,1521,0.968752,-0.720551,-0.726364,-0.486523,0.956094,1.086953
2,7,77,1541,0.962893,-0.744965,-0.735641,-2.236523,-0.668906,1.961953
2,7,78,1561,0.966799,-0.769379,-0.746872,-2.049023,-2.606406,0.711953
2,7,79,1581,0.958010,-0.761078,-0.766891,0.450977,-4.043906,-1.788047
2,7,80,1601,0.958010,-0.745453,-0.794235,0.263477,-4.106406,-1.975547
2,7,81,1621,0.950686,-0.743500,-0.815720,-2.049023,-2.418906,-0.850547
2,7,82,1641,0.950686,-0.736176,-0.825485,1.575977,-1.418906,-1.288047
2,7,83,1661,0.940432,-0.724946,-0.837204,0.700977,0.393594,-0.350547
2,7,84,1681,0.945315,-0.736664,-0.828415,1.200977,2.893594,0.274453
2,7,85,1701,0.950686,-0.742036,-0.818161,2.575977,4.018594,-0.288047
2,7,86,1721,0.963870,-0.732758,-0.800583,4.575976,4.643594,-0.725547
2,7,87,1741,0.970217,-0.742524,-0.777634,2.763477,3.893594,0.274453
2,7,88,1761,0.979006,-0.750825,-0.765427,2.325977,2.643594,-0.350547
2,7,89,1781,0.981936,-0.740082,-0.756638,2.138477,1.831094,-1.038047
2,7,90,1801,0.981936,-0.737153,-0.749802,1.138477,0.956094,-0.600547
2,7,91,1821,0.979006,-0.735688,-0.752731,0.450977,-0.668906,-1.038047
2,7,92,1841,0.969729,-0.719086,-0.775681,2.013477,-1.231406,-0.850547
2,7,93,1861,0.968264,-0.711274,-0.777634,1.950977,0.143594,-0.413047
2,7,94,1881,0.965334,-0.712250,-0.775192,0.450977,0.643594,0.899453
2,7,95,1901,0.954104,-0.722504,-0.780563,-2.424023,1.206094,2.461953
2,7,96,1921,0.946292,-0.729828,-0.780075,-1.736523,1.456094,2.086953
2,7,97,1941,0.950686,-0.737641,-0.778122,0.638477,1.393594,1.086953
2,7,98,1961,0.954104,-0.741059,-0.774216,0.388477,1.268594,0.586953
2,7,99,1981,0.963870,-0.736176,-0.762009,-0.986523,0.331094,0.836953
2,8,0,0,0.957522,-0.720551,-0.957809,7.888476,1.393594,-4.600547
2,8,1,21,0.948245,-0.696137,-0.969040,11.763476,7.268594,-4.538047
2,8,2,41,0.943362,-0.676606,-0.959763,13.450976,13.143594,-3.475547
2,8,3,61,0.940432,-0.639008,-0.946579,15.388476,19.081093,-2.350547
2,8,4,81,0.932131,-0.583832,-0.944626,18.013477,25.143593,-0.913047
2,8,5,101,0.927737,-0.506684,-0.951462,17.638477,35.018593,1.836953
2,8,6,121,0.932620,-0.392914,-0.881149,18.325977,45.706093,6.086953
2,8,7,141,0.957034,-0.273286,-0.785934,22.763477,59.143593,21.774452
2,8,8,161,0.927737,-0.270356,-0.692673,8.388476,72.706093,45.524452
2,8,9,181,0.908206,-0.394868,-0.529099,4.075976,82.581093,64.086952
2,8,10,201,0.912112,-0.495942,-0.331345,28.325977,79.768593,68.274452
2,8,11,221,0.903323,-0.557953,-0.208786,54.075977,66.581093,66.211952
2,8,12,241,0.874026,-0.606293,-0.150681,55.763477,54.768593,69.461952
2,8,13,261,0.834475,-0.652680,-0.098923,37.450977,46.456093,79.711952
2,8,14,281,0.818362,-0.786469,-0.043747,16.138477,42.706093,96.149452
2,8,15,301,0.832034,-0.990571,-0.003708,-15.174024,28.456093,105.649452
2,8,16,321,0.853518,-1.182465,-0.031540,-25.799023,8.518594,97.211952
2,8,17,341,0.890627,-1.352875,-0.116501,-29.674023,-17.543907,74.086952
2,8,18,361,0.916995,-1.482758,-0.240524,-41.049023,-46.481407,45.336952
2,8,19,381,0.893557,-1.517426,-0.404099,-49.611523,-68.918907,11.274453
2,8,20,401,0.900393,-1.450043,-0.573044,-66.424026,-80.293907,-14.913047
2,8,21,421,0.907229,-1.363129,-0.704880,-76.049026,-87.856407,-25.850548
2,8,22,441,0.887209,-1.302582,-0.856247,-80.236526,-90.481407,-26.163048
2,8,23,461,0.880862,-1.329438,-0.991501,-85.236526,-84.356407,-23.163048
2,8,24,481,0.888674,-1.368989,-1.070602,-90.861526,-72.856407,-31.225548
2,8,25,501,0.919924,-1.335297,-1.088181,-87.549026,-66.168907,-47.038048
2,8,26,521,0.924319,-1.267426,-1.130173,-79.986526,-67.356407,-56.350548
2,8,27,541,0.909182,-1.196137,-1.184372,-81.486526,-70.981407,-59.475548
2,8,28,561,0.879885,-1.137543,-1.249802,-70.736526,-67.918907,-64.850548
2,8,29,581,0.879885,-1.048188,-1.292770,-45.674023,-65.106407,-77.663048
2,8,30,601,0.865725,-0.869477,-1.391891,-14.861524,-61.918907,-82.225548
2,8,31,621,0.855959,-0.691254,-1.509567,18.263477,-46.106407,-74.163048
2,8,32,641,0.844241,-0.602387,-1.564255,34.888477,-20.481407,-59.850548
2,8,33,661,0.847659,-0.563813,-1.479294,40.513477,13.206094,-48.538048
2,8,34,681,0.875979,-0.553559,-1.294724,51.450977,36.268593,-42.975548
2,8,35,701,0.893557,-0.536957,-1.129684,58.450977,46.268593,-41.100548
2,8,36,721,0.898928,-0.499360,-1.025681,54.950977,48.018593,-36.413048
2,8,37,741,0.899417,-0.469086,-0.961716,46.950977,48.956093,-30.725548
2,8,38,761,0.921389,-0.434418,-0.865524,36.763477,48.643593,-24.725548
2,8,39,781,0.927249,-0.452973,-0.808395,40.950977,43.331093,-16.038048
2,8,40,801,0.896487,-0.506684,-0.812790,47.888477,46.518593,-10.725547
2,8,41,821,0.912600,-0.522309,-0.729294,33.575977,54.706093,-3.600547
2,8,42,841,0.951174,-0.561860,-0.583298,16.825977,56.768593,4.586953
2,8,43,861,0.965823,-0.657075,-0.501266,17.575977,47.268593,6.461953
2,8,44,881,0.967776,-0.680024,-0.511032,18.575977,38.643593,0.524453
2,8,45,901,0.985354,-0.692719,-0.492477,5.575976,34.018593,0.836953
2,8,46,921,0.997561,-0.705414,-0.470993,2.200977,31.393593,0.711953
2,8,47,941,1.007327,-0.698578,-0.461227,2.263477,24.956093,1.711953
2,8,48,961,1.017581,-0.696137,-0.466599,2.950977,17.956093,2.961953
2,8,49,981,1.019045,-0.714203,-0.489059,-3.299023,8.456094,6.086953
2,8,50,1001,1.009280,-0.765473,-0.547653,-13.174024,-0.731406,8.274453
2,8,51,1021,0.993655,-0.772797,-0.622360,-13.861524,-9.481406,5.399453
2,8,52,1041,0.979006,-0.758637,-0.712692,-2.049023,-16.668907,1.961953
2,8,53,1061,0.962893,-0.754243,-0.791306,7.700976,-19.668907,-1.100547
2,8,54,1081,0.950198,-0.734711,-0.861130,10.450976,-16.481407,-1.538047
2,8,55,1101,0.935549,-0.728364,-0.899216,3.638477,-7.168906,1.024453
2,8,56,1121,0.936038,-0.740082,-0.888474,-4.736524,3.143594,3.274453
2,8,57,1141,0.949709,-0.764496,-0.834763,-7.674024,8.893594,3.336953
2,8,58,1161,0.963381,-0.782563,-0.798141,-0.111523,10.143594,0.211953
2,8,59,1181,0.966311,-0.786469,-0.772263,3.763477,9.456094,-1.350547
2,8,60,1201,0.967776,-0.775727,-0.737595,-0.424023,7.456094,-1.788047
2,8,61,1221,0.963381,-0.766938,-0.716110,-3.299023,5.706094,-1.350547
2,8,62,1241,0.967288,-0.767914,-0.704391,-4.299024,2.518594,-2.225547
2,8,63,1261,0.964358,-0.750825,-0.708298,-2.736523,-0.981406,-3.413047
2,8,64,1281,0.967288,-0.741547,-0.728317,-1.861523,-3.731406,-3.663047
2,8,65,1301,0.960940,-0.733246,-0.748825,-3.174023,-4.668906,-2.725547
2,8,66,1321,0.951663,-0.727387,-0.761032,-2.236523,-3.606406,-2.913047
2,8,67,1341,0.958987,-0.719086,-0.760544,-3.049023,-2.293906,-2.225547
2,8,68,1361,0.956545,-0.728364,-0.761032,-2.674023,-2.356406,-1.538047
2,8,69,1381,0.959475,-0.728364,-0.762985,-3.424023,-1.981406,-1.100547
2,8,70,1401,0.966799,-0.732758,-0.757126,-4.736524,-2.731406,-0.663047
2,8,71,1421,0.961428,-0.733246,-0.773727,-2.549023,-4.293906,-0.975547
2,8,72,1441,0.958010,-0.722504,-0.792770,-0.111523,-2.543906,-1.350547
2,8,73,1461,0.960452,-0.726899,-0.790817,-2.924023,0.268594,0.274453
2,8,74,1481,0.959963,-0.743989,-0.767868,-3.549023,1.581094,0.586953
2,8,75,1501,0.967776,-0.755219,-0.759079,-1.549023,0.331094,-0.288047
2,8,76,1521,0.965823,-0.749848,-0.764938,-1.174023,-0.356406,-1.288047
2,8,77,1541,0.974124,-0.730805,-0.755661,-0.111523,-1.293906,-0.975547
2,8,78,1561,0.965334,-0.730317,-0.768356,1.638477,-1.606406,-0.288047
2,8,79,1581,0.960452,-0.734711,-0.781052,1.013477,-0.231406,0.024453
2,8,80,1601,0.963870,-0.732270,-0.774216,-0.611523,1.081094,0.774453
2,8,81,1621,0.969729,-0.729828,-0.760544,-1.611523,1.268594,1.086953
2,8,82,1641,0.973147,-0.733246,-0.752243,-2.236523,-0.606406,1.961953
2,8,83,1661,0.962405,-0.739106,-0.762009,0.200977,-1.418906,2.211953
2,8,84,1681,0.957522,-0.746430,-0.769333,1.700977,-0.793906,1.774453
2,8,85,1701,0.959963,-0.749360,-0.762009,0.013477,-0.356406,1.899453
2,8,86,1721,0.963381,-0.740082,-0.745407,-1.861523,-0.793906,1.711953
2,8,87,1741,0.965823,-0.722016,-0.734665,-2.236523,-2.356406,1.961953
2,8,88,1761,0.954104,-0.733246,-0.743942,-1.361523,-3.481406,2.774453
2,8,89,1781,0.940432,-0.745453,-0.753220,-0.549023,-3.356406,2.149453
2,8,90,1801,0.939944,-0.760590,-0.771286,0.388477,-3.856406,1.524453
2,8,91,1821,0.924807,-0.780610,-0.817673,1.950977,-2.106406,-1.975547
2,8,92,1841,0.940920,-0.778657,-0.826462,-2.049023,2.956094,-4.288047
2,8,93,1861,0.956057,-0.772797,-0.800583,-3.861523,6.893594,-5.538047
2,8,94,1881,0.980959,-0.744477,-0.761032,0.700977,8.331094,-6.538047
2,8,95,1901,0.991702,-0.730317,-0.732224,1.825977,5.331094,-4.788047
2,8,96,1921,0.986331,-0.731293,-0.728806,5.200976,3.143594,-3.850547
2,8,97,1941,0.979006,-0.732758,-0.732712,1.825977,1.081094,-2.788047
2,8,98,1961,0.975100,-0.724946,-0.745895,1.638477,-0.918906,-1.663047
2,8,99,1981,0.965334,-0.715668,-0.768356,0.263477,-1.481406,-0.850547
2,9,0,0,0.942874,-0.673188,-0.911423,3.263477,9.018594,-6.725547
2,9,1,21,0.946292,-0.610200,-0.941696,7.513476,16.768593,-4.538047
2,9,2,41,0.936038,-0.541840,-0.969528,12.513476,29.206093,-3.975547
2,9,3,61,0.957522,-0.385590,-0.970016,16.450977,47.268593,2.024453
2,9,4,81,0.962893,-0.196137,-0.915329,15.013476,66.893593,18.774452
2,9,5,101,0.961917,-0.127778,-0.762497,-10.799024,82.456093,41.149452
2,9,6,121,0.972170,-0.185395,-0.550583,5.700976,87.893593,56.149452
2,9,7,141,0.949709,-0.283539,-0.324020,41.638477,81.706093,71.149452
2,9,8,161,0.934573,-0.367524,-0.142868,56.700977,66.643593,83.586952
2,9,9,181,0.880862,-0.512055,-0.032516,49.013477,53.893593,99.649452
2,9,10,201,0.825686,-0.671235,-0.002731,12.263476,50.643593,116.899452
2,9,11,221,0.833987,-0.840668,0.058304,-39.424023,46.518593,132.711960
2,9,12,241,0.874514,-1.099457,0.140823,-72.861526,21.518593,137.399460
2,9,13,261,0.870120,-1.403168,0.149612,-59.736523,-28.356407,106.336952
2,9,14,281,0.808596,-1.528168,0.002151,-30.549023,-71.918907,60.399452
2,9,15,301,0.774417,-1.509614,-0.293259,-22.236523,-108.106407,30.836952
2,9,16,321,0.700198,-1.504731,-0.621384,-43.111523,-125.793907,20.149452
2,9,17,341,0.694827,-1.569184,-0.894333,-65.986526,-126.231407,9.711953
2,9,18,361,0.723635,-1.605317,-1.104782,-83.236526,-114.606407,1.524453
2,9,19,381,0.720706,-1.656098,-1.272751,-104.361526,-94.293907,-0.350547
2,9,20,401,0.746096,-1.713227,-1.336227,-131.486526,-65.668907,-17.975548
2,9,21,421,0.789553,-1.637055,-1.336227,-119.361526,-48.106407,-50.850548
2,9,22,441,0.824709,-1.423188,-1.365524,-92.861526,-36.543907,-72.913048
2,9,23,461,0.849612,-1.250336,-1.354782,-72.611526,-26.168907,-82.975548
2,9,24,481,0.862795,-1.128754,-1.336227,-42.799023,-24.981407,-85.725548
2,9,25,501,0.858889,-1.048188,-1.345016,-7.236524,-26.981407,-86.663048
2,9,26,521,0.852542,-0.976899,-1.362595,20.700977,-22.793907,-94.413048
2,9,27,541,0.865725,-0.853852,-1.365036,40.763477,-15.981406,-101.975548
2,9,28,561,0.874026,-0.709809,-1.364059,49.950977,-11.293906,-98.600548
2,9,29,581,0.859866,-0.591645,-1.363083,48.825977,-6.918906,-89.850548
2,9,30,601,0.832034,-0.494477,-1.369919,60.200977,7.143594,-83.788048
2,9,31,621,0.794924,-0.406586,-1.334274,51.513477,34.206093,-72.850548
2,9,32,641,0.798342,-0.295258,-1.167770,28.575977,60.393593,-66.475548
2,9,33,661,0.863772,-0.161469,-0.937302,22.325977,71.831093,-59.663048
2,9,34,681,0.916995,-0.084809,-0.737106,30.450977,70.206093,-41.600548
2,9,35,701,0.934573,-0.106782,-0.610153,47.950977,59.331093,-26.225548
2,9,36,721,0.939456,-0.243500,-0.552048,79.388474,42.143593,-11.350547
2,9,37,741,0.923342,-0.402192,-0.560837,93.825974,49.768593,-0.663047
2,9,38,761,0.937502,-0.515473,-0.510544,68.513474,52.956093,7.336953
2,9,39,781,0.954104,-0.618989,-0.420212,40.200977,51.831093,15.211953
2,9,40,801,0.967776,-0.723481,-0.402145,22.763477,52.081093,21.836952
2,9,41,821,1.000491,-0.787934,-0.366013,2.388477,46.268593,16.274452
2,9,42,841,1.029788,-0.801118,-0.334274,1.200977,33.643593,6.024453
2,9,43,861,1.051760,-0.793305,-0.362595,10.013476,16.518593,-3.663047
2,9,44,881,1.038577,-0.772309,-0.449020,12.200976,-1.981406,-9.475547
2,9,45,901,1.008303,-0.744477,-0.582809,8.388476,-10.293906,-10.225547
2,9,46,921,0.989749,-0.702485,-0.670700,0.638477,-8.293906,-9.225547
2,9,47,941,0.982913,-0.674164,-0.722458,-10.674024,-3.918906,-4.663047
2,9,48,961,0.979495,-0.666840,-0.749313,-12.799024,-2.668906,-1.350547
2,9,49,981,0.972170,-0.672700,-0.777634,-7.236524,-4.793906,0.024453
2,9,50,1001,0.960452,-0.671723,-0.802048,-1.299023,-6.918906,0.149453
2,9,51,1021,0.946292,-0.668793,-0.820114,-0.986523,-6.168906,0.899453
2,9,52,1041,0.933596,-0.660004,-0.821091,-5.486524,-3.293906,2.899453
2,9,53,1061,0.939456,-0.664399,-0.804001,-7.361524,0.018594,4.649453
2,9,54,1081,0.938967,-0.684907,-0.784470,-6.736524,0.643594,5.524453
2,9,55,1101,0.952639,-0.693696,-0.759567,-5.049024,-1.168906,4.836953
2,9,56,1121,0.947268,-0.703461,-0.764450,2.825977,-3.543906,3.836953
2,9,57,1141,0.939944,-0.707856,-0.776657,1.763477,-4.231406,3.586953
2,9,58,1161,0.929202,-0.728364,-0.782516,0.013477,-2.543906,2.836953
2,9,59,1181,0.941897,-0.722016,-0.774216,-2.174023,-0.356406,1.211953
2,9,60,1201,0.948245,-0.702973,-0.765427,-3.549023,-0.418906,0.899453
2,9,61,1221,0.949221,-0.705903,-0.764450,-4.924024,-0.981406,0.336953
2,9,62,1241,0.961917,-0.675629,-0.769821,-1.861523,-0.793906,-0.350547
2,9,63,1261,0.970217,-0.670258,-0.784958,0.013477,0.956094,0.774453
2,9,64,1281,0.986819,-0.676606,-0.777634,-2.674023,4.956094,2.211953
2,9,65,1301,1.000491,-0.664887,-0.766891,-6.736524,8.268594,4.211953
2,9,66,1321,0.993655,-0.642426,-0.765915,-6.861524,11.581094,6.836953
2,9,67,1341,0.981448,-0.646332,-0.750778,-6.111524,14.206094,9.774453
2,9,68,1361,0.966799,-0.680512,-0.726364,-5.361524,14.518594,12.274453
2,9,69,1381,0.949221,-0.718110,-0.714645,-5.236524,12.393594,13.024453
2,9,70,1401,0.930667,-0.754731,-0.720993,-5.424024,9.706094,12.524453
2,9,71,1421,0.914553,-0.775727,-0.727341,-3.361523,7.706094,9.899453
2,9,72,1441,0.910159,-0.784516,-0.725388,-2.424023,4.956094,7.461953
2,9,73,1461,0.901370,-0.787446,-0.727829,-2.611523,2.018594,4.774453
2,9,74,1481,0.899417,-0.774262,-0.731735,-1.674023,0.393594,1.961953
2,9,75,1501,0.907229,-0.771821,-0.733688,-2.611523,-0.231406,0.336953
2,9,76,1521,0.926760,-0.763032,-0.718063,-5.361524,-0.418906,-1.600547
2,9,77,1541,0.949221,-0.735200,-0.701950,-2.674023,-2.856406,-2.725547
2,9,78,1561,0.953127,-0.716157,-0.716599,0.013477,-4.606406,-1.663047
2,9,79,1581,0.959963,-0.707856,-0.710739,-2.986523,-3.418906,-0.725547
2,9,80,1601,0.982913,-0.678071,-0.684860,-3.611523,-2.731406,-0.100547
2,9,81,1621,0.995120,-0.680512,-0.676559,-2.236523,-4.856406,3.149453
2,9,82,1641,0.993167,-0.706879,-0.682419,0.700977,-7.918906,4.086953
2,9,83,1661,0.995120,-0.706879,-0.708786,-0.236523,-10.356406,5.774453
2,9,84,1681,0.974612,-0.728364,-0.753708,-2.736523,-11.356406,7.774453
2,9,85,1701,0.954104,-0.745942,-0.790329,-2.486523,-9.606406,7.774453
2,9,86,1721,0.941409,-0.766450,-0.807907,-2.799023,-6.043906,6.961953
2,9,87,1741,0.936526,-0.777680,-0.797165,-3.486523,-2.356406,6.024453
2,9,88,1761,0.936526,-0.787446,-0.773727,-4.486524,-1.106406,4.524453
2,9,89,1781,0.942874,-0.781586,-0.762985,-2.611523,-1.668906,2.024453
2,9,90,1801,0.943850,-0.768403,-0.770309,-2.986523,-1.606406,0.774453
2,9,91,1821,0.949221,-0.765961,-0.759567,-2.111523,-0.356406,0.149453
2,9,92,1841,0.953127,-0.764985,-0.752731,-0.861523,-1.043906,-0.225547
2,9,93,1861,0.946780,-0.764008,-0.766403,0.388477,-1.418906,-1.538047
2,9,94,1881,0.953127,-0.751313,-0.765915,-0.799023,-0.231406,-2.038047
2,9,95,1901,0.966799,-0.732270,-0.745407,-1.986523,0.018594,-0.913047
2,9,96,1921,0.964846,-0.745942,-0.740036,-1.174023,-1.731406,-0.538047
2,9,97,1941,0.957522,-0.744965,-0.755173,-0.299023,-2.168906,-0.975547
2,9,98,1961,0.961428,-0.741059,-0.753708,0.450977,-1.668906,-0.913047
2,9,99,1981,0.961917,-0.743500,-0.752731,1.700977,-1.668906,-1.163047
2,10,0,0,0.960940,-0.700043,-0.943649,7.388476,0.018594,-2.288047
2,10,1,21,0.945315,-0.678071,-0.962692,9.575976,8.643594,-1.100547
2,10,2,41,0.938479,-0.649262,-0.940231,12.700976,15.081094,-1.038047
2,10,3,61,0.922366,-0.600434,-0.919724,14.138476,22.768593,1.711953
2,10,4,81,0.914553,-0.555024,-0.866013,10.700976,34.268593,5.711953
2,10,5,101,0.919436,-0.523774,-0.755173,10.075976,43.956093,8.461953
2,10,6,121,0.942385,-0.466645,-0.625778,7.200976,49.143593,16.524452
2,10,7,141,0.962405,-0.449555,-0.518356,7.763476,49.143593,26.649452
2,10,8,161,0.962893,-0.463227,-0.448044,12.263476,47.018593,36.899452
2,10,9,181,0.958987,-0.525727,-0.369431,16.325977,40.831093,46.899452
2,10,10,201,0.920901,-0.613129,-0.304977,19.075977,33.893593,53.524452
2,10,11,221,0.896487,-0.688325,-0.281540,10.575976,27.893593,59.211952
2,10,12,241,0.877932,-0.803071,-0.262497,-6.986524,19.643593,63.961952
2,10,13,261,0.878420,-0.897797,-0.270309,-17.549023,11.393594,62.024452
2,10,14,281,0.893069,-1.003754,-0.299606,-32.424023,0.081094,57.899452
2,10,15,301,0.924807,-1.135102,-0.354294,-43.111523,-13.668906,52.149452
2,10,16,321,0.944338,-1.243012,-0.409958,-46.049023,-29.356407,33.961952
2,10,17,341,0.948245,-1.248383,-0.469528,-42.299023,-45.668907,9.274453
2,10,18,361,0.965823,-1.149262,-0.564255,-44.611523,-57.418907,-3.350547
2,10,19,381,0.962893,-1.100434,-0.698532,-59.174023,-68.043907,-2.288047
2,10,20,401,0.947756,-1.125336,-0.836227,-54.174023,-71.168907,-2.663047
2,10,21,421,0.945315,-1.171723,-0.942184,-43.924023,-64.418907,-0.663047
2,10,22,441,0.946292,-1.244965,-1.012985,-47.799023,-55.668907,-0.663047
2,10,23,461,0.930178,-1.280610,-1.052536,-60.486523,-45.418907,-10.350547
2,10,24,481,0.942385,-1.199555,-1.065720,-61.986523,-35.168907,-24.663048
2,10,25,501,0.993167,-1.047211,-1.055466,-57.861523,-27.668907,-31.163048
2,10,26,521,1.006350,-0.960297,-1.057907,-46.049023,-25.668907,-24.725548
2,10,27,541,0.992190,-0.976411,-1.059372,-29.674023,-26.231407,-15.725547
2,10,28,561,0.957522,-1.064301,-1.088181,-10.299024,-26.606407,-18.413048
2,10,29,581,0.954592,-1.059907,-1.120407,3.263477,-30.543907,-30.350548
2,10,30,601,0.959963,-0.978364,-1.167282,19.513477,-33.231407,-39.100548
2,10,31,621,0.950198,-0.943696,-1.213669,26.138477,-32.981407,-36.038048
2,10,32,641,0.900881,-0.938325,-1.233200,24.013477,-29.043907,-36.850548
2,10,33,661,0.870608,-0.816254,-1.235641,32.325977,-16.231407,-46.850548
2,10,34,681,0.886721,-0.664887,-1.199509,26.700977,2.643594,-42.038048
2,10,35,701,0.901370,-0.610200,-1.055954,12.075976,22.893593,-31.225548
2,10,36,721,0.909670,-0.635590,-0.924606,18.200977,28.643593,-27.163048
2,10,37,741,0.893069,-0.633637,-0.912888,37.013477,25.643593,-29.663048
2,10,38,761,0.893557,-0.590180,-0.932907,43.138477,28.768593,-31.100548
2,10,39,781,0.908694,-0.534028,-0.872360,41.825977,32.643593,-30.850548
2,10,40,801,0.927249,-0.497407,-0.800583,47.138477,35.143593,-27.663048
2,10,41,821,0.934573,-0.538422,-0.750778,45.450977,36.456093,-19.100548
2,10,42,841,0.937991,-0.590180,-0.699997,30.513477,39.643593,-13.850547
2,10,43,861,0.959475,-0.603364,-0.639938,15.325976,43.081093,-8.663047
2,10,44,881,0.970706,-0.609223,-0.577927,11.638476,42.143593,-6.350547
2,10,45,901,0.995120,-0.615571,-0.532516,17.263477,37.331093,-4.288047
2,10,46,921,0.994143,-0.656098,-0.519821,20.075977,27.081093,-2.288047
2,10,47,941,0.983401,-0.708832,-0.541306,20.513477,19.706093,-2.663047
2,10,48,961,0.982913,-0.731782,-0.555954,13.888476,15.393594,-3.163047
2,10,49,981,0.984866,-0.755219,-0.574509,4.638476,12.143594,-2.288047
2,10,50,1001,0.985354,-0.756684,-0.596481,2.013477,7.831094,-4.038047
2,10,51,1021,0.985842,-0.738618,-0.628220,2.950977,3.268594,-4.413047
2,10,52,1041,0.980959,-0.745942,-0.662399,3.638477,-0.543906,-3.850547
2,10,53,1061,0.980959,-0.749848,-0.685837,2.325977,-2.981406,-4.725547
2,10,54,1081,0.986819,-0.726899,-0.707809,-1.861523,-4.793906,-4.350547
2,10,55,1101,0.987795,-0.719575,-0.734665,-3.736523,-6.356406,-1.913047
2,10,56,1121,0.973147,-0.729340,-0.762497,-3.611523,-6.606406,-1.225547
2,10,57,1141,0.976077,-0.726411,-0.779099,-0.611523,-6.418906,-2.725547
2,10,58,1161,0.977053,-0.710786,-0.793747,1.325977,-6.106406,-2.038047
2,10,59,1181,0.965334,-0.722016,-0.804489,2.575977,-4.356406,0.211953
2,10,60,1201,0.956545,-0.743989,-0.806931,-1.674023,-2.168906,0.774453
2,10,61,1221,0.949221,-0.749848,-0.801071,-5.111524,-0.043906,-0.163047
2,10,62,1241,0.957034,-0.726411,-0.783493,-4.486524,0.956094,-0.538047
2,10,63,1261,0.954592,-0.722016,-0.778122,-0.361523,0.893594,-0.663047
2,10,64,1281,0.953616,-0.725922,-0.769821,0.638477,1.018594,-0.725547
2,10,65,1301,0.958499,-0.722993,-0.757126,0.138477,0.456094,-1.288047
2,10,66,1321,0.962405,-0.716157,-0.760056,-1.111523,-0.043906,-0.538047
2,10,67,1341,0.951174,-0.725434,-0.772263,-1.111523,0.643594,-0.038047
2,10,68,1361,0.959475,-0.728852,-0.761520,-2.674023,1.768594,-0.413047
2,10,69,1381,0.966799,-0.726899,-0.747360,-2.111523,0.268594,-0.850547
2,10,70,1401,0.967776,-0.713227,-0.759567,1.013477,-1.356406,-1.225547
2,10,71,1421,0.965334,-0.711274,-0.773727,-0.299023,-1.481406,-0.100547
2,10,72,1441,0.958010,-0.722504,-0.772263,-3.424023,-0.168906,0.711953
2,10,73,1461,0.959963,-0.722016,-0.760056,-2.299023,0.393594,0.399453
2,10,74,1481,0.960940,-0.722504,-0.762497,-0.236523,-0.481406,0.524453
2,10,75,1501,0.956057,-0.735688,-0.765427,-0.736523,-0.293906,0.586953
2,10,76,1521,0.961917,-0.753266,-0.748337,-2.111523,-1.981406,0.711953
2,10,77,1541,0.961428,-0.760590,-0.728806,-4.361524,-4.981406,1.149453
2,10,78,1561,0.953127,-0.745942,-0.741989,-0.549023,-8.356406,-1.600547
2,10,79,1581,0.961428,-0.720551,-0.764450,-3.111523,-9.668906,-1.913047
2,10,80,1601,0.958010,-0.722993,-0.777145,-3.924023,-10.668906,-1.038047
2,10,81,1621,0.943362,-0.726411,-0.815720,3.138477,-8.418906,-1.788047
2,10,82,1641,0.923342,-0.681000,-0.828903,10.325976,-4.481406,-5.600547
2,10,83,1661,0.970706,-0.716645,-0.817673,-11.736524,-3.543906,0.461953
2,10,84,1681,0.954592,-0.734223,-0.785934,5.388476,1.268594,-0.725547
2,10,85,1701,0.956057,-0.711274,-0.815231,1.138477,0.581094,-0.663047
2,10,86,1721,0.957522,-0.722993,-0.803024,3.700977,2.831094,-0.788047
2,10,87,1741,0.953127,-0.708344,-0.816696,3.575977,4.331094,-0.600547
2,10,88,1761,0.962405,-0.708832,-0.789352,1.263477,7.206094,0.774453
2,10,89,1781,0.966311,-0.724946,-0.763474,0.700977,6.456094,1.649453
2,10,90,1801,0.959475,-0.704926,-0.762009,-5.986524,2.831094,2.024453
2,10,91,1821,0.969729,-0.741059,-0.738571,-16.674023,1.581094,4.149453
2,10,92,1841,0.969729,-0.735688,-0.731247,-8.986524,0.018594,3.274453
2,10,93,1861,0.963381,-0.726899,-0.756149,-4.111524,-1.481406,2.649453
2,10,94,1881,0.958010,-0.733735,-0.758591,0.075977,-1.606406,1.649453
2,10,95,1901,0.955569,-0.743989,-0.768845,-1.111523,-1.668906,1.649453
2,10,96,1921,0.958499,-0.737153,-0.764450,-2.486523,-0.356406,1.211953
2,10,97,1941,0.961917,-0.730805,-0.753708,-1.861523,-0.918906,1.149453
2,10,98,1961,0.957522,-0.734223,-0.757126,-0.924023,-1.356406,0.961953
2,10,99,1981,0.955081,-0.735200,-0.758102,-2.549023,-2.106406,0.899453
2,11,0,0,0.932620,-0.657075,-0.919235,4.888476,1.456094,-6.850547
2,11,1,21,0.925784,-0.574067,-0.962204,9.075976,10.893594,-3.350547
2,11,2,41,0.930178,-0.535981,-0.933395,5.450976,20.206093,1.649453
2,11,3,61,0.931155,-0.538911,-0.888474,10.638476,26.518593,5.586953
2,11,4,81,0.916995,-0.474946,-0.867966,17.388477,34.081093,10.211953
2,11,5,101,0.930178,-0.368989,-0.766891,16.763477,46.206093,19.899452
2,11,6,121,0.938479,-0.285981,-0.622360,15.700976,53.018593,31.586952
2,11,7,141,0.934084,-0.241059,-0.502243,25.700977,52.268593,42.774452
2,11,8,161,0.931643,-0.333832,-0.358200,39.888477,46.706093,58.961952
2,11,9,181,0.912112,-0.476411,-0.263962,48.700977,40.581093,68.211952
2,11,10,201,0.883792,-0.587250,-0.203903,30.575977,38.268593,78.274452
2,11,11,221,0.864749,-0.715668,-0.141403,2.763477,33.081093,87.836952
2,11,12,241,0.856936,-0.893891,-0.107224,-15.924024,19.831093,93.524452
2,11,13,261,0.860354,-1.106782,-0.145798,-23.736523,3.143594,88.274452
2,11,14,281,0.882815,-1.315766,-0.219040,-39.986523,-18.168907,70.399452
2,11,15,301,0.924319,-1.468110,-0.322556,-55.799023,-42.793907,43.836952
2,11,16,321,0.960940,-1.532075,-0.449997,-77.299026,-61.918907,13.836953
2,11,17,341,1.006350,-1.505707,-0.592575,-85.361526,-82.918907,-14.100547
2,11,18,361,1.006838,-1.381196,-0.776657,-75.736526,-100.856407,-28.600548
2,11,19,381,0.951174,-1.286957,-1.027634,-74.736526,-102.043907,-20.788048
2,11,20,401,0.917971,-1.331391,-1.179489,-87.049026,-88.106407,-14.788047
2,11,21,421,0.922366,-1.340668,-1.245895,-82.861526,-75.793907,-26.913048
2,11,22,441,0.915530,-1.251801,-1.343063,-83.236526,-64.231407,-32.850548
2,11,23,461,0.884280,-1.168793,-1.397263,-91.861526,-49.106407,-29.100548
2,11,24,481,0.893557,-1.120942,-1.392380,-75.611526,-30.918907,-30.850548
2,11,25,501,0.899417,-1.084321,-1.356735,-53.861523,-23.543907,-35.038048
2,11,26,521,0.909670,-1.051606,-1.340134,-15.799024,-25.293907,-48.288048
2,11,27,541,0.879885,-0.956391,-1.379684,17.013477,-22.856407,-56.288048
2,11,28,561,0.865237,-0.882172,-1.387009,24.825977,2.706094,-54.850548
2,11,29,581,0.850100,-0.792817,-1.368942,35.888477,6.331094,-53.413048
2,11,30,601,0.835452,-0.710786,-1.271774,29.138477,27.081093,-51.913048
2,11,31,621,0.876467,-0.655610,-1.116013,23.013477,36.643593,-50.913048
2,11,32,641,0.882327,-0.601411,-1.027145,21.263477,38.143593,-51.850548
2,11,33,661,0.876467,-0.518403,-0.979294,28.513477,36.956093,-55.725548
2,11,34,681,0.890139,-0.394868,-0.940231,37.700977,30.393593,-53.038048
2,11,35,701,0.867190,-0.359223,-0.931931,51.388477,31.018593,-43.225548
2,11,36,721,0.840334,-0.348481,-0.911911,57.138477,41.768593,-37.413048
2,11,37,741,0.847659,-0.385102,-0.824997,43.513477,47.081093,-26.663048
2,11,38,761,0.858401,-0.398774,-0.744431,42.950977,50.393593,-21.225548
2,11,39,781,0.879885,-0.387055,-0.670212,36.888477,50.768593,-14.663047
2,11,40,801,0.906741,-0.417817,-0.605759,33.075977,47.956093,-6.225547
2,11,41,821,0.917971,-0.502289,-0.570602,27.950977,44.706093,-0.600547
2,11,42,841,0.932131,-0.596039,-0.543747,28.325977,35.268593,-1.413047
2,11,43,861,0.940920,-0.648286,-0.575485,38.888477,26.768593,-6.538047
2,11,44,881,0.957522,-0.651215,-0.590622,38.013477,21.768593,-10.850547
2,11,45,901,0.985842,-0.637543,-0.573044,23.638477,18.581093,-8.350547
2,11,46,921,1.005373,-0.639008,-0.567184,11.888476,16.018593,-4.788047
2,11,47,941,1.010745,-0.618500,-0.588669,7.825976,11.268594,-1.600547
2,11,48,961,1.004885,-0.643403,-0.616013,1.450977,7.393594,4.024453
2,11,49,981,0.998538,-0.682465,-0.632614,2.138477,3.268594,3.461953
2,11,50,1001,1.021487,-0.675629,-0.621384,7.825976,-1.481406,2.211953
2,11,51,1021,1.002932,-0.717621,-0.648727,11.325976,-7.793906,4.461953
2,11,52,1041,0.980959,-0.758637,-0.696091,8.388476,-9.231406,3.086953
2,11,53,1061,0.987307,-0.759614,-0.725876,0.825977,-9.418906,2.024453
2,11,54,1081,0.982424,-0.736176,-0.749802,-2.799023,-10.168906,1.461953
2,11,55,1101,0.968264,-0.725922,-0.768845,-2.611523,-9.981406,0.899453
2,11,56,1121,0.948733,-0.711762,-0.793747,-2.424023,-9.293906,0.586953
2,11,57,1141,0.932620,-0.701020,-0.814743,-2.299023,-7.731406,0.711953
2,11,58,1161,0.919924,-0.699067,-0.837692,-1.236523,-4.606406,0.149453
2,11,59,1181,0.923342,-0.700532,-0.845016,-1.424023,-1.356406,-1.975547
2,11,60,1201,0.931155,-0.692231,-0.838181,-2.799023,0.768594,-2.788047
2,11,61,1221,0.952639,-0.651215,-0.821091,-3.236523,1.956094,-3.225547
2,11,62,1241,0.970217,-0.617036,-0.816208,0.200977,1.518594,-0.975547
2,11,63,1261,0.965334,-0.631196,-0.812790,2.138477,2.143594,1.774453
2,11,64,1281,0.963870,-0.655121,-0.795212,-0.861523,2.456094,3.586953
2,11,65,1301,0.954104,-0.660981,-0.792282,-2.424023,2.331094,4.211953
2,11,66,1321,0.947268,-0.681000,-0.780563,-2.736523,2.331094,5.086953
2,11,67,1341,0.940920,-0.702485,-0.764450,-1.236523,0.706094,4.524453
2,11,68,1361,0.938967,-0.705903,-0.768356,1.138477,-0.981406,2.336953
2,11,69,1381,0.935549,-0.690766,-0.777145,1.888477,-0.793906,1.336953
2,11,70,1401,0.933108,-0.701508,-0.782028,-1.549023,0.268594,1.899453
2,11,71,1421,0.937991,-0.706391,-0.772751,-6.049024,1.018594,1.899453
2,11,72,1441,0.942385,-0.701020,-0.772751,-4.486524,-0.856406,0.774453
2,11,73,1461,0.939944,-0.684907,-0.787888,0.450977,-1.231406,-0.225547
2,11,74,1481,0.937991,-0.690766,-0.785446,1.013477,-0.418906,-0.038047
2,11,75,1501,0.937991,-0.705903,-0.782028,-0.799023,-0.856406,0.149453
2,11,76,1521,0.930178,-0.711274,-0.792282,-2.424023,-0.981406,-0.850547
2,11,77,1541,0.940432,-0.703950,-0.787399,-2.299023,-0.293906,-2.725547
2,11,78,1561,0.950198,-0.687836,-0.782516,-1.611523,-1.231406,-3.288047
2,11,79,1581,0.948733,-0.680024,-0.783493,-1.799023,-1.731406,-2.725547
2,11,80,1601,0.950686,-0.670258,-0.780563,-1.486523,-1.293906,-2.225547
2,11,81,1621,0.951174,-0.665864,-0.778610,-1.924023,-1.606406,-1.413047
2,11,82,1641,0.947268,-0.675629,-0.787399,-0.861523,-1.293906,-0.913047
2,11,83,1661,0.942874,-0.687836,-0.788376,-2.424023,-0.731406,-0.725547
2,11,84,1681,0.949709,-0.692719,-0.779587,-3.361523,-1.731406,-1.413047
2,11,85,1701,0.953127,-0.681000,-0.786423,-1.486523,-2.918906,-1.850547
2,11,86,1721,0.950198,-0.674164,-0.804001,0.575977,-2.606406,-1.975547
2,11,87,1741,0.947756,-0.665864,-0.805466,-2.111523,-1.981406,-0.600547
2,11,88,1761,0.946292,-0.681489,-0.803024,-0.674023,-0.418906,-0.350547
2,11,89,1781,0.948733,-0.683930,-0.795212,-1.299023,0.331094,-1.163047
2,11,90,1801,0.958010,-0.669770,-0.781052,-1.174023,0.331094,-1.163047
2,11,91,1821,0.954592,-0.663911,-0.784470,-0.986523,-0.856406,-0.100547
2,11,92,1841,0.945315,-0.677582,-0.793259,-0.674023,-0.418906,0.024453
2,11,93,1861,0.941897,-0.672211,-0.788376,-2.049023,0.268594,0.149453
2,11,94,1881,0.939944,-0.676118,-0.786423,-1.486523,-0.293906,0.461953
2,11,95,1901,0.937014,-0.679047,-0.794724,-0.549023,0.456094,0.149453
2,11,96,1921,0.945315,-0.686860,-0.775192,-0.861523,0.206094,0.086953
2,11,97,1941,0.945803,-0.683442,-0.778122,0.138477,-0.918906,-0.475547
2,11,98,1961,0.946780,-0.671235,-0.793747,-1.299023,-1.106406,-0.225547
2,11,99,1981,0.949221,-0.671235,-0.787399,-2.736523,-0.293906,0.586953
2,12,0,0,0.941897,-0.616547,-0.923630,6.763476,-1.168906,-4.413047
2,12,1,21,0.928225,-0.529145,-0.981735,11.700976,6.143594,-3.475547
2,12,2,41,0.932620,-0.475434,-0.958298,14.700976,18.706093,0.586953
2,12,3,61,0.924807,-0.477875,-0.882126,17.888477,28.268593,4.836953
2,12,4,81,0.918948,-0.457368,-0.824997,17.513477,35.268593,10.586953
2,12,5,101,0.898928,-0.425629,-0.762497,9.950976,46.643593,16.461952
2,12,6,121,0.936526,-0.355317,-0.629196,3.200977,56.956093,24.649452
2,12,7,141,0.947268,-0.326996,-0.509567,6.825976,58.018593,39.461952
2,12,8,161,0.934573,-0.378754,-0.424606,22.513477,56.643593,49.649452
2,12,9,181,0.936526,-0.427582,-0.325485,26.388477,53.831093,56.274452
2,12,10,201,0.923342,-0.540864,-0.247360,9.763476,47.956093,71.961952
2,12,11,221,0.888674,-0.692719,-0.206345,-20.111523,47.581093,83.961952
2,12,12,241,0.893069,-0.798188,-0.093552,-63.174023,55.143593,92.774452
2,12,13,261,0.902346,-0.922700,0.025101,-97.924026,42.518593,98.274452
2,12,14,281,0.899905,-1.104828,0.007034,-100.986526,-6.168906,80.586952
2,12,15,301,0.920413,-1.232758,-0.196091,-80.986526,-59.731407,39.586952
2,12,16,321,0.855471,-1.306489,-0.476364,-57.299023,-94.668907,27.961952
2,12,17,341,0.826174,-1.314301,-0.744431,-67.424026,-113.481407,16.461952
2,12,18,361,0.858889,-1.356293,-0.888962,-75.111526,-120.168907,0.649453
2,12,19,381,0.854983,-1.339203,-1.047653,-73.924026,-117.168907,-0.788047
2,12,20,401,0.822756,-1.389008,-1.175583,-83.986526,-108.418907,1.149453
2,12,21,421,0.809573,-1.441254,-1.272751,-77.674026,-89.293907,-16.038048
2,12,22,441,0.832034,-1.345551,-1.314255,-66.236526,-72.043907,-43.725548
2,12,23,461,0.858401,-1.203950,-1.332809,-50.674023,-56.418907,-57.663048
2,12,24,481,0.868167,-1.088227,-1.347946,-45.299023,-42.856407,-60.100548
2,12,25,501,0.878420,-1.022309,-1.321091,-40.861523,-31.981407,-60.788048
2,12,26,521,0.896487,-0.947602,-1.286911,-20.549023,-25.731407,-61.975548
2,12,27,541,0.901370,-0.903168,-1.279587,-3.424023,-21.793907,-62.850548
2,12,28,561,0.891604,-0.851899,-1.299606,12.200976,-18.856407,-64.225548
2,12,29,581,0.883303,-0.765473,-1.318649,24.575977,-9.731406,-66.100548
2,12,30,601,0.888674,-0.692719,-1.283981,28.575977,2.768594,-62.788048
2,12,31,621,0.897952,-0.627289,-1.211716,32.450977,9.893594,-61.038048
2,12,32,641,0.905764,-0.543793,-1.164841,41.513477,14.331094,-58.475548
2,12,33,661,0.900881,-0.475922,-1.140427,44.200977,14.581094,-54.663048
2,12,34,681,0.882815,-0.437348,-1.149704,48.825977,15.768594,-50.163048
2,12,35,701,0.846682,-0.392426,-1.217575,59.138477,22.706093,-45.913048
2,12,36,721,0.823733,-0.347504,-1.189255,51.075977,44.393593,-38.350548
2,12,37,741,0.857424,-0.346039,-0.993942,29.450977,62.893593,-27.413048
2,12,38,761,0.887209,-0.361176,-0.838181,26.888477,62.768593,-18.788048
2,12,39,781,0.900881,-0.417817,-0.752731,22.513477,59.081093,-10.350547
2,12,40,801,0.927249,-0.459321,-0.644821,22.638477,57.518593,-5.975547
2,12,41,821,0.956057,-0.507172,-0.546188,23.013477,53.331093,-2.413047
2,12,42,841,0.963870,-0.553559,-0.501266,26.138477,42.456093,-1.913047
2,12,43,861,0.975100,-0.582368,-0.505661,20.013477,34.706093,0.649453
2,12,44,881,0.990237,-0.602387,-0.486618,6.138476,26.643593,4.774453
2,12,45,901,1.012698,-0.611176,-0.469040,2.513477,15.081094,8.774453
2,12,46,921,1.001956,-0.642426,-0.521774,9.138476,3.456094,9.774453
2,12,47,941,0.979495,-0.684418,-0.595993,13.700976,-5.106406,5.899453
2,12,48,961,0.966311,-0.708832,-0.670212,13.013476,-9.168906,2.461953
2,12,49,981,0.954104,-0.702485,-0.729782,4.075976,-9.731406,0.399453
2,12,50,1001,0.952639,-0.697602,-0.774704,-1.236523,-8.106406,-0.038047
2,12,51,1021,0.947756,-0.682953,-0.803513,-3.299023,-8.231406,-0.288047
2,12,52,1041,0.952639,-0.669282,-0.825485,-1.111523,-8.668906,-0.663047
2,12,53,1061,0.941409,-0.680024,-0.859665,0.075977,-7.418906,-0.850547
2,12,54,1081,0.935061,-0.669770,-0.876755,-1.861523,-4.168906,-2.663047
2,12,55,1101,0.944827,-0.639008,-0.871384,-4.986524,-0.668906,-1.913047
2,12,56,1121,0.947756,-0.631196,-0.868454,-3.361523,0.706094,-1.100547
2,12,57,1141,0.945315,-0.639496,-0.857712,-2.549023,2.206094,-0.788047
2,12,58,1161,0.939456,-0.642914,-0.849411,-3.549023,3.643594,-0.850547
2,12,59,1181,0.942385,-0.632172,-0.839157,-3.424023,4.893594,-0.225547
2,12,60,1201,0.954592,-0.645356,-0.820602,-1.924023,5.393594,0.274453
2,12,61,1221,0.961428,-0.654633,-0.814743,-0.799023,4.456094,0.836953
2,12,62,1241,0.961917,-0.648774,-0.806931,-1.611523,3.018594,1.524453
2,12,63,1261,0.956057,-0.644868,-0.813278,-1.861523,0.706094,2.961953
2,12,64,1281,0.941897,-0.645844,-0.818161,-1.049023,0.393594,3.649453
2,12,65,1301,0.942385,-0.669770,-0.816696,-0.549023,0.768594,5.336953
2,12,66,1321,0.930178,-0.706879,-0.818649,-0.924023,-0.106406,4.774453
2,12,67,1341,0.930178,-0.695161,-0.826950,-0.361523,-0.356406,2.211953
2,12,68,1361,0.934084,-0.665375,-0.830368,-0.111523,0.456094,2.524453
2,12,69,1381,0.937014,-0.683930,-0.816696,-2.611523,0.831094,4.524453
2,12,70,1401,0.939944,-0.700532,-0.812302,-0.049023,0.456094,2.524453
2,12,71,1421,0.944827,-0.689301,-0.816208,0.013477,-0.106406,1.399453
2,12,72,1441,0.944338,-0.685395,-0.809860,-3.049023,-0.981406,1.024453
2,12,73,1461,0.941409,-0.677094,-0.814743,-2.549023,-2.793906,-0.163047
2,12,74,1481,0.930178,-0.667328,-0.831833,-1.424023,-4.606406,-0.975547
2,12,75,1501,0.926272,-0.661469,-0.850388,-0.799023,-4.481406,-1.038047
2,12,76,1521,0.931155,-0.666352,-0.863571,0.825977,-3.418906,-1.788047
2,12,77,1541,0.933108,-0.660981,-0.869919,-1.111523,-0.981406,-1.663047
2,12,78,1561,0.942874,-0.653168,-0.859665,-1.174023,1.081094,-1.163047
2,12,79,1581,0.947756,-0.660004,-0.839645,0.888477,2.206094,0.086953
2,12,80,1601,0.948733,-0.687836,-0.816696,2.763477,2.081094,-0.288047
2,12,81,1621,0.952151,-0.681000,-0.814743,1.075977,0.831094,-0.850547
2,12,82,1641,0.950198,-0.666352,-0.817184,-0.986523,0.331094,-0.350547
2,12,83,1661,0.951174,-0.666352,-0.812302,0.450977,0.331094,0.086953
2,12,84,1681,0.953127,-0.684418,-0.812302,2.388477,-0.356406,-0.475547
2,12,85,1701,0.948245,-0.684907,-0.819138,1.200977,0.081094,-0.788047
2,12,86,1721,0.952639,-0.674653,-0.817184,-2.174023,0.768594,-0.225547
2,12,87,1741,0.952151,-0.660981,-0.817184,-0.861523,0.081094,-0.038047
2,12,88,1761,0.949221,-0.661957,-0.817184,0.513477,-0.168906,-0.350547
2,12,89,1781,0.946292,-0.647797,-0.815720,-2.549023,-0.481406,0.211953
2,12,90,1801,0.944338,-0.644379,-0.812790,-3.174023,-0.981406,0.836953
2,12,91,1821,0.939944,-0.637055,-0.824997,0.450977,-1.481406,0.524453
2,12,92,1841,0.943850,-0.634125,-0.826462,0.513477,-0.856406,1.336953
2,12,93,1861,0.947756,-0.635590,-0.811813,-0.799023,-0.481406,3.211953
2,12,94,1881,0.951174,-0.649750,-0.806931,0.825977,-1.168906,3.399453
2,12,95,1901,0.947756,-0.656586,-0.817184,1.388477,-2.231406,3.336953
2,12,96,1921,0.939944,-0.682465,-0.824997,-0.549023,-1.606406,4.336953
2,12,97,1941,0.936526,-0.702485,-0.825485,0.075977,-1.731406,3.149453
2,12,98,1961,0.932620,-0.698090,-0.840134,0.325977,-1.918906,2.024453
2,12,99,1981,0.934084,-0.697114,-0.838669,0.825977,-0.668906,1.711953
2,13,0,0,0.928225,-0.659028,-0.993454,4.763476,0.518594,-2.350547
2,13,1,21,0.923831,-0.613129,-0.985153,4.888476,8.643594,-1.350547
2,13,2,41,0.923342,-0.583344,-0.949509,9.388476,14.831094,0.836953
2,13,3,61,0.913577,-0.570649,-0.936325,10.325976,21.081093,2.211953
2,13,4,81,0.905764,-0.518891,-0.927048,11.950976,25.831093,3.399453
2,13,5,101,0.890627,-0.454438,-0.951950,9.950976,31.643593,5.961953
2,13,6,121,0.867190,-0.408051,-0.929001,12.763476,40.518593,7.961953
2,13,7,141,0.865237,-0.363618,-0.870895,14.325976,57.081093,14.899453
2,13,8,161,0.880862,-0.323578,-0.722946,6.513476,70.581093,25.149452
2,13,9,181,0.893557,-0.284028,-0.542770,13.200976,74.831093,34.336952
2,13,10,201,0.911135,-0.319672,-0.370895,13.013476,72.393593,49.024452
2,13,11,221,0.913088,-0.451508,-0.219528,-2.611523,67.268593,68.836952
2,13,12,241,0.897952,-0.657075,-0.083786,-24.049023,56.893593,76.774452
2,13,13,261,0.919436,-0.821625,-0.000778,-32.736523,34.706093,71.586952
2,13,14,281,0.935549,-0.968598,-0.056931,-27.799023,7.393594,63.711952
2,13,15,301,0.924319,-1.111664,-0.184372,-31.736523,-14.293906,53.149452
2,13,16,321,0.936038,-1.200532,-0.282028,-44.611523,-29.918907,33.524452
2,13,17,341,0.985842,-1.191743,-0.354782,-55.611523,-46.356407,13.461953
2,13,18,361,0.983401,-1.130219,-0.499802,-65.861526,-65.168907,2.524453
2,13,19,381,0.967288,-1.072114,-0.642380,-75.674026,-72.731407,-0.225547
2,13,20,401,0.968264,-1.053071,-0.783981,-78.674026,-75.793907,-0.913047
2,13,21,421,0.948245,-1.079438,-0.915817,-75.924026,-73.793907,7.024453
2,13,22,441,0.926272,-1.144868,-1.009079,-71.486526,-73.606407,9.086953
2,13,23,461,0.901858,-1.200532,-1.093063,-57.236523,-74.418907,0.336953
2,13,24,481,0.891116,-1.177094,-1.197556,-31.299023,-71.543907,-17.788048
2,13,25,501,0.886233,-1.066743,-1.308395,-23.424023,-58.543907,-25.100548
2,13,26,521,0.889651,-1.014008,-1.338669,-36.111523,-39.043907,-20.413048
2,13,27,541,0.901858,-1.026215,-1.310837,-41.861523,-23.231407,-13.788047
2,13,28,561,0.901370,-1.093110,-1.233200,-37.049023,-16.606407,-17.788048
2,13,29,581,0.918948,-1.053071,-1.207321,-3.361523,-17.606407,-35.100548
2,13,30,601,0.946780,-0.937836,-1.212204,20.700977,-19.856407,-45.913048
2,13,31,621,0.939944,-0.881684,-1.227829,27.138477,-16.918907,-38.975548
2,13,32,641,0.912112,-0.871918,-1.216110,23.013477,-5.106406,-36.850548
2,13,33,661,0.934084,-0.803559,-1.149216,17.763477,6.643594,-42.413048
2,13,34,681,0.974124,-0.690766,-1.054977,8.700976,12.768594,-40.538048
2,13,35,701,0.972659,-0.634125,-1.008102,5.825976,14.518594,-35.788048
2,13,36,721,0.961917,-0.560395,-1.002731,6.763476,11.018594,-33.163048
2,13,37,741,0.966799,-0.456879,-1.015915,20.638477,6.643594,-29.788048
2,13,38,761,0.943362,-0.414887,-1.063766,43.700977,8.768594,-25.600548
2,13,39,781,0.900881,-0.390473,-1.091599,54.888477,14.456094,-20.475548
2,13,40,801,0.888674,-0.412446,-1.054489,54.513477,25.581093,-12.725547
2,13,41,821,0.867190,-0.450043,-1.005173,49.325977,37.393593,-6.038047
2,13,42,841,0.864749,-0.479828,-0.908005,33.075977,49.081093,1.086953
2,13,43,861,0.885745,-0.514985,-0.787399,18.388477,55.518593,6.774453
2,13,44,881,0.892092,-0.558442,-0.714157,15.888476,52.018593,10.524453
2,13,45,901,0.900881,-0.588715,-0.664841,23.888477,44.393593,9.899453
2,13,46,921,0.898440,-0.648774,-0.632614,36.263477,37.018593,8.024453
2,13,47,941,0.909182,-0.666840,-0.590622,41.013477,32.893593,4.711953
2,13,48,961,0.927249,-0.692719,-0.556931,36.013477,27.206093,4.336953
2,13,49,981,0.946292,-0.721528,-0.546677,28.075977,23.518593,2.836953
2,13,50,1001,0.967776,-0.718598,-0.543259,23.325977,15.393594,0.024453
2,13,51,1021,0.985354,-0.685883,-0.569138,23.200977,9.768594,0.586953
2,13,52,1041,1.003420,-0.715180,-0.560349,8.325976,9.206094,6.336953
2,13,53,1061,1.006350,-0.756196,-0.536423,0.638477,7.206094,4.961953
2,13,54,1081,1.027834,-0.778168,-0.541306,-1.674023,1.018594,4.336953
2,13,55,1101,1.016604,-0.804047,-0.585251,-3.924023,-7.293906,4.024453
2,13,56,1121,0.999026,-0.804536,-0.653610,-4.986524,-11.043906,2.649453
2,13,57,1141,1.002932,-0.787934,-0.684860,-2.736523,-14.168906,-0.288047
2,13,58,1161,0.999026,-0.766938,-0.729294,3.888477,-17.481407,-2.350547
2,13,59,1181,1.003420,-0.751801,-0.787399,6.200976,-17.043907,-3.288047
2,13,60,1201,0.976077,-0.738129,-0.846481,-0.424023,-12.231406,-0.100547
2,13,61,1221,0.963870,-0.734223,-0.855759,-7.924024,-4.981406,1.399453
2,13,62,1241,0.960940,-0.722016,-0.847946,-5.986524,-1.856406,0.961953
2,13,63,1261,0.951174,-0.718110,-0.855759,-1.549023,0.518594,1.024453
2,13,64,1281,0.946292,-0.730317,-0.844528,-2.986523,2.893594,2.149453
2,13,65,1301,0.941409,-0.744965,-0.824509,-3.736523,3.393594,2.211953
2,13,66,1321,0.936526,-0.758149,-0.816208,-2.736523,2.956094,0.836953
2,13,67,1341,0.936038,-0.749848,-0.816696,-2.861523,2.956094,-0.975547
2,13,68,1361,0.953127,-0.738129,-0.799606,-1.799023,2.393594,-1.225547
2,13,69,1381,0.957034,-0.742036,-0.792770,0.638477,0.081094,-0.975547
2,13,70,1401,0.953127,-0.735200,-0.809372,1.325977,-0.168906,-1.225547
2,13,71,1421,0.958010,-0.738618,-0.801559,-1.986523,0.706094,-0.163047
2,13,72,1441,0.968752,-0.756196,-0.786423,-2.299023,-0.606406,0.274453
2,13,73,1461,0.962893,-0.759614,-0.795212,0.200977,-1.981406,-1.288047
2,13,74,1481,0.961917,-0.748871,-0.799606,0.138477,-1.356406,-1.913047
2,13,75,1501,0.966311,-0.736664,-0.790329,-1.236523,-0.793906,-1.975547
2,13,76,1521,0.976077,-0.717133,-0.787399,-0.486523,-0.731406,-1.538047
2,13,77,1541,0.978030,-0.724946,-0.790329,-1.361523,-0.543906,-0.663047
2,13,78,1561,0.975100,-0.730317,-0.786423,-3.174023,0.143594,-0.225547
2,13,79,1581,0.965823,-0.722016,-0.783493,-3.861523,-0.356406,0.461953
2,13,80,1601,0.961917,-0.722504,-0.786911,-1.236523,-0.543906,0.336953
2,13,81,1621,0.957034,-0.723481,-0.795700,-0.111523,-0.481406,0.461953
2,13,82,1641,0.955569,-0.731782,-0.801071,-1.674023,-0.043906,1.086953
2,13,83,1661,0.957034,-0.737641,-0.797653,-1.986523,0.206094,0.774453
2,13,84,1681,0.956057,-0.741059,-0.793259,-2.799023,-0.106406,0.336953
2,13,85,1701,0.956545,-0.740571,-0.789352,-2.174023,-0.293906,-0.038047
2,13,86,1721,0.955569,-0.751313,-0.803513,-0.486523,-0.981406,-0.350547
2,13,87,1741,0.956545,-0.745453,-0.808884,0.575977,0.331094,-1.475547
2,13,88,1761,0.970706,-0.740571,-0.793259,0.138477,1.143594,-1.663047
2,13,89,1781,0.970706,-0.735688,-0.785446,-3.174023,0.268594,-1.225547
2,13,90,1801,0.969241,-0.727387,-0.795700,-3.424023,-0.168906,-0.475547
2,13,91,1821,0.965334,-0.729828,-0.800095,-3.049023,0.143594,-0.100547
2,13,92,1841,0.964846,-0.723481,-0.794235,-0.236523,0.581094,-0.725547
2,13,93,1861,0.964846,-0.718598,-0.788376,-0.674023,0.206094,0.461953
2,13,94,1881,0.958987,-0.730805,-0.791794,-2.736523,-0.293906,1.211953
2,13,95,1901,0.956057,-0.740082,-0.795212,-1.924023,0.331094,0.649453
2,13,96,1921,0.964846,-0.732758,-0.777634,-1.799023,0.018594,0.274453
2,13,97,1941,0.964846,-0.738618,-0.779587,0.513477,-1.418906,-0.100547
2,13,98,1961,0.958987,-0.732270,-0.792282,-1.674023,-1.043906,-0.413047
2,13,99,1981,0.967288,-0.718110,-0.780563,-4.924024,-0.543906,0.899453
2,14,0,0,0.915042,-0.583832,-0.974411,13.075976,18.893593,-1.225547
2,14,1,21,0.905764,-0.576508,-0.926071,12.700976,30.268593,2.649453
2,14,2,41,0.907717,-0.552582,-0.839645,11.075976,39.331093,5.274453
2,14,3,61,0.910647,-0.490082,-0.747849,10.950976,47.143593,7.774453
2,14,4,81,0.924319,-0.422700,-0.664841,10.138476,53.581093,14.899453
2,14,5,101,0.936526,-0.379243,-0.521774,5.700976,55.831093,29.211952
2,14,6,121,0.945803,-0.426606,-0.387497,15.638476,47.706093,36.711952
2,14,7,141,0.931155,-0.467133,-0.322067,27.575977,41.768593,42.836952
2,14,8,161,0.939456,-0.533051,-0.223434,13.950976,37.143593,50.086952
2,14,9,181,0.932620,-0.621918,-0.185349,0.325977,27.956093,59.086952
2,14,10,201,0.892581,-0.770356,-0.220993,-15.549024,15.456094,64.211952
2,14,11,221,0.869143,-0.910004,-0.272263,-27.486523,5.643594,59.774452
2,14,12,241,0.897952,-1.052094,-0.302048,-34.486523,-5.668906,48.649452
2,14,13,261,0.940920,-1.168793,-0.336716,-40.674023,-22.918907,34.524452
2,14,14,281,0.939456,-1.242524,-0.413864,-51.611523,-39.418907,22.336952
2,14,15,301,0.971682,-1.273774,-0.476364,-63.486523,-52.918907,5.774453
2,14,16,321,1.001467,-1.223969,-0.579391,-61.861523,-68.543907,-9.475547
2,14,17,341,1.003420,-1.125825,-0.739059,-63.799023,-78.543907,-12.600547
2,14,18,361,0.969729,-1.141450,-0.862106,-66.861526,-83.606407,-5.538047
2,14,19,381,0.950198,-1.190766,-0.973434,-54.986523,-76.293907,-2.725547
2,14,20,401,0.949221,-1.217621,-1.033493,-54.174023,-74.293907,-11.850547
2,14,21,421,0.960452,-1.139008,-1.101852,-46.486523,-75.356407,-24.288048
2,14,22,441,0.924319,-1.037446,-1.238571,-41.486523,-70.856407,-25.100548
2,14,23,461,0.894045,-1.015961,-1.324997,-54.111523,-51.918907,-18.538048
2,14,24,481,0.903323,-1.051118,-1.294724,-57.611523,-34.481407,-21.038048
2,14,25,501,0.919436,-0.994965,-1.247849,-39.549023,-29.981407,-31.600548
2,14,26,521,0.930178,-0.902192,-1.241501,-15.674024,-30.293907,-38.350548
2,14,27,541,0.913088,-0.866547,-1.257614,1.513477,-25.918907,-35.725548
2,14,28,561,0.888674,-0.880219,-1.260056,8.263476,-16.293907,-34.663048
2,14,29,581,0.909182,-0.807465,-1.212692,11.200976,-9.793906,-40.038048
2,14,30,601,0.942874,-0.702973,-1.172653,26.575977,-8.793906,-46.788048
2,14,31,621,0.939456,-0.600922,-1.207809,36.575977,-2.231406,-42.788048
2,14,32,641,0.928225,-0.584321,-1.173630,17.513477,12.706094,-31.225548
2,14,33,661,0.957522,-0.581391,-1.051071,10.513476,21.706093,-27.163048
2,14,34,681,0.969241,-0.512543,-1.001755,21.075977,23.393593,-24.413048
2,14,35,701,0.973635,-0.504731,-0.958786,20.950977,26.143593,-16.788048
2,14,36,721,0.973635,-0.528657,-0.899704,22.700977,24.456093,-12.288047
2,14,37,741,0.955081,-0.533539,-0.902145,33.888477,19.831093,-10.850547
2,14,38,761,0.928225,-0.501801,-0.957321,39.013477,19.518593,-5.475547
2,14,39,781,0.902346,-0.529633,-0.970016,36.513477,25.956093,-0.163047
2,14,40,801,0.903811,-0.590180,-0.905075,28.388477,32.956093,4.149453
2,14,41,821,0.908206,-0.617036,-0.837692,28.825977,33.768593,5.649453
2,14,42,841,0.907229,-0.655610,-0.786423,34.325977,31.143593,4.211953
2,14,43,861,0.915530,-0.699555,-0.757614,39.513477,25.706093,0.399453
2,14,44,881,0.913088,-0.710786,-0.773727,42.200977,21.956093,-3.538047
2,14,45,901,0.917483,-0.701508,-0.770798,33.388477,24.456093,-3.663047
2,14,46,921,0.936038,-0.701020,-0.709274,23.825977,29.456093,-2.350547
2,14,47,941,0.975588,-0.706391,-0.623337,16.200977,28.268593,-1.413047
2,14,48,961,1.000002,-0.723969,-0.588181,11.825976,18.143593,-0.850547
2,14,49,981,1.007815,-0.734223,-0.609665,13.888476,7.518594,-2.413047
2,14,50,1001,1.009280,-0.743989,-0.658005,13.575976,-0.731406,-4.038047
2,14,51,1021,0.999514,-0.750825,-0.703415,8.263476,-4.793906,-5.038047
2,14,52,1041,0.997073,-0.738618,-0.741013,4.138476,-5.606406,-5.225547
2,14,53,1061,0.994143,-0.722993,-0.774216,-1.486523,-5.043906,-4.288047
2,14,54,1081,0.988772,-0.722016,-0.802048,-3.111523,-4.606406,-2.413047
2,14,55,1101,0.978030,-0.735200,-0.826462,-2.736523,-5.106406,-2.225547
2,14,56,1121,0.969729,-0.730317,-0.852341,-1.611523,-4.731406,-3.600547
2,14,57,1141,0.972170,-0.711274,-0.866501,-1.424023,-3.481406,-4.163047
2,14,58,1161,0.975588,-0.701020,-0.878708,-1.174023,-2.543906,-3.475547
2,14,59,1181,0.964358,-0.693696,-0.890915,-2.549023,-1.481406,-1.225547
2,14,60,1201,0.957522,-0.684907,-0.898239,-1.236523,0.831094,-0.600547
2,14,61,1221,0.963381,-0.682953,-0.888474,-0.049023,2.018594,1.149453
2,14,62,1241,0.959475,-0.700532,-0.888474,2.075977,2.518594,2.461953
2,14,63,1261,0.948733,-0.714203,-0.887009,1.638477,3.893594,2.524453
2,14,64,1281,0.956057,-0.713715,-0.858688,1.200977,5.456094,2.211953
2,14,65,1301,0.955081,-0.726411,-0.832321,-0.486523,5.643594,3.211953
2,14,66,1321,0.953616,-0.745453,-0.811325,1.200977,5.018594,2.211953
2,14,67,1341,0.961428,-0.748871,-0.797653,1.638477,2.456094,1.274453
2,14,68,1361,0.955569,-0.755219,-0.800095,0.450977,0.581094,0.524453
2,14,69,1381,0.949709,-0.753266,-0.817184,-4.111524,1.331094,0.586953
2,14,70,1401,0.954104,-0.742524,-0.813278,-9.174024,1.643594,0.274453
2,14,71,1421,0.958987,-0.728364,-0.817184,-5.486524,-0.418906,-0.975547
2,14,72,1441,0.957522,-0.725434,-0.830368,0.388477,-3.231406,-2.725547
2,14,73,1461,0.957034,-0.717621,-0.851852,4.888476,-3.731406,-3.350547
2,14,74,1481,0.952639,-0.723969,-0.866989,-0.299023,-1.418906,-1.850547
2,14,75,1501,0.963381,-0.725434,-0.846481,-4.486524,1.268594,-1.413047
2,14,76,1521,0.969729,-0.711762,-0.836716,-2.549023,-0.043906,-1.975547
2,14,77,1541,0.965334,-0.692719,-0.852829,1.200977,-1.293906,-1.725547
2,14,78,1561,0.959963,-0.701020,-0.861618,1.325977,-0.106406,-0.100547
2,14,79,1581,0.959963,-0.713715,-0.842575,0.138477,1.206094,0.836953
2,14,80,1601,0.972170,-0.722016,-0.824509,0.763477,1.143594,0.836953
2,14,81,1621,0.965823,-0.739106,-0.828903,0.138477,0.643594,1.211953
2,14,82,1641,0.961917,-0.746918,-0.826462,-1.861523,1.206094,0.461953
2,14,83,1661,0.964846,-0.739594,-0.816208,-2.299023,0.206094,0.211953
2,14,84,1681,0.963381,-0.738129,-0.817184,0.888477,-1.231406,-0.725547
2,14,85,1701,0.962405,-0.728852,-0.826462,2.325977,-1.981406,-1.350547
2,14,86,1721,0.961428,-0.721039,-0.843063,1.075977,-1.231406,-1.475547
2,14,87,1741,0.965334,-0.714203,-0.834763,-3.674023,0.268594,-0.225547
2,14,88,1761,0.975588,-0.707856,-0.821091,-2.549023,-0.918906,0.274453
2,14,89,1781,0.963870,-0.705903,-0.839157,1.450977,-2.043906,0.336953
2,14,90,1801,0.952639,-0.712739,-0.858200,1.513477,-0.981406,0.836953
2,14,91,1821,0.950198,-0.725434,-0.849411,0.013477,0.518594,1.149453
2,14,92,1841,0.952151,-0.735688,-0.843552,-0.236523,0.268594,0.024453
2,14,93,1861,0.950198,-0.723969,-0.850388,-1.174023,0.893594,-0.413047
2,14,94,1881,0.957034,-0.722504,-0.840622,-1.111523,1.706094,-0.413047
2,14,95,1901,0.964358,-0.722016,-0.821579,0.638477,1.331094,-0.788047
2,14,96,1921,0.965823,-0.725434,-0.816696,1.325977,-0.293906,-0.975547
2,14,97,1941,0.961428,-0.713227,-0.831833,0.638477,-0.981406,-0.725547
2,14,98,1961,0.958499,-0.712739,-0.838669,0.013477,-0.043906,0.024453
2,14,99,1981,0.958499,-0.724946,-0.830368,-0.861523,0.018594,-0.163047
2,15,0,0,0.940920,-0.647309,-0.947067,-3.424023,5.456094,-5.600547
2,15,1,21,0.943362,-0.595063,-0.954391,-5.424024,13.206094,-3.913047
2,15,2,41,0.940432,-0.562348,-0.947067,-8.111524,23.206093,-0.913047
2,15,3,61,0.945803,-0.520356,-0.916794,-17.049023,34.768593,5.649453
2,15,4,81,0.950198,-0.535493,-0.871872,-23.736523,41.331093,14.399453
2,15,5,101,0.940920,-0.498383,-0.852829,-18.236523,47.893593,15.024453
2,15,6,121,0.941409,-0.417817,-0.804001,-12.674024,57.768593,20.899452
2,15,7,141,0.930667,-0.370453,-0.705368,-11.299024,62.893593,30.399452
2,15,8,161,0.898440,-0.376801,-0.572067,-4.424024,61.893593,42.961952
2,15,9,181,0.878909,-0.434907,-0.456833,19.075977,59.706093,51.899452
2,15,10,201,0.869143,-0.520844,-0.357712,29.325977,56.393593,57.649452
2,15,11,221,0.858401,-0.643403,-0.272263,20.950977,54.268593,66.711952
2,15,12,241,0.863284,-0.811371,-0.192184,3.013477,46.768593,72.149452
2,15,13,261,0.878909,-0.957856,-0.158005,-9.299024,32.081093,71.899452
2,15,14,281,0.876956,-1.139985,-0.175583,-17.736523,9.143594,59.524452
2,15,15,301,0.913577,-1.228364,-0.218063,-8.549024,-20.043907,23.586952
2,15,16,321,0.966311,-1.270844,-0.303024,-4.299024,-36.543907,4.336953
2,15,17,341,0.961917,-1.274750,-0.420212,-20.361523,-53.981407,-6.350547
2,15,18,361,0.963381,-1.243500,-0.542282,-45.361523,-62.793907,-17.725548
2,15,19,381,0.957034,-1.164887,-0.667770,-65.424026,-65.856407,-19.975548
2,15,20,401,0.950198,-1.140473,-0.765915,-72.986526,-68.543907,-15.413047
2,15,21,421,0.949221,-1.140961,-0.844528,-71.861526,-69.356407,-16.288048
2,15,22,441,0.973147,-1.154633,-0.886032,-63.799023,-69.606407,-22.913048
2,15,23,461,0.981448,-1.083832,-0.954391,-50.674023,-72.981407,-32.538048
2,15,24,481,0.968264,-0.980805,-1.041794,-58.799023,-70.731407,-29.975548
2,15,25,501,0.946292,-0.967133,-1.110153,-71.236526,-64.668907,-19.475548
2,15,26,521,0.932620,-0.981293,-1.132126,-68.924026,-55.481407,-14.350547
2,15,27,541,0.949221,-0.999848,-1.124313,-50.799023,-51.418907,-14.975547
2,15,28,561,0.935549,-1.027192,-1.165817,-26.111523,-51.293907,-22.163048
2,15,29,581,0.921877,-1.013032,-1.218063,-12.799024,-49.106407,-30.475548
2,15,30,601,0.922366,-0.933442,-1.258102,-4.736524,-43.043907,-36.538048
2,15,31,621,0.925295,-0.848969,-1.283981,-5.674024,-34.731407,-34.538048
2,15,32,641,0.928713,-0.782563,-1.291306,6.888476,-21.668907,-29.725548
2,15,33,661,0.919436,-0.791352,-1.242966,12.513476,-8.356406,-26.350548
2,15,34,681,0.941897,-0.792817,-1.158005,11.638476,-1.481406,-33.663048
2,15,35,701,0.958010,-0.637055,-1.142380,18.825977,4.518594,-38.225548
2,15,36,721,0.971682,-0.509614,-1.115036,13.825976,11.206094,-27.163048
2,15,37,741,0.980959,-0.518403,-1.056442,11.388476,16.206093,-16.100548
2,15,38,761,0.965823,-0.566743,-1.014450,15.513476,20.143593,-11.163047
2,15,39,781,0.958499,-0.558442,-0.990524,27.888477,20.331093,-13.288047
2,15,40,801,0.949709,-0.539887,-0.992477,32.825977,21.206093,-10.600547
2,15,41,821,0.933596,-0.562348,-0.999802,28.200977,24.018593,-7.038047
2,15,42,841,0.924319,-0.582856,-0.968552,19.763477,29.018593,-2.413047
2,15,43,861,0.939944,-0.588715,-0.908493,17.638477,28.518593,1.086953
2,15,44,881,0.945315,-0.612153,-0.874313,28.513477,24.643593,-0.725547
2,15,45,901,0.939944,-0.601411,-0.857224,33.263477,23.706093,-2.225547
2,15,46,921,0.934084,-0.605805,-0.832321,24.263477,26.206093,2.524453
2,15,47,941,0.928713,-0.651215,-0.813278,16.513477,26.081093,5.336953
2,15,48,961,0.916506,-0.674164,-0.801559,16.638477,26.018593,5.149453
2,15,49,981,0.922854,-0.689789,-0.782028,19.950977,25.518593,2.461953
2,15,50,1001,0.925784,-0.700532,-0.768356,22.825977,21.018593,0.149453
2,15,51,1021,0.931643,-0.698090,-0.763474,26.075977,18.206093,-2.350547
2,15,52,1041,0.937991,-0.685395,-0.757126,29.138477,15.581094,-4.288047
2,15,53,1061,0.951174,-0.669770,-0.744919,27.575977,13.081094,-4.100547
2,15,54,1081,0.954104,-0.667817,-0.762497,23.200977,10.393594,-1.788047
2,15,55,1101,0.952639,-0.655610,-0.790817,18.263477,11.143594,-0.663047
2,15,56,1121,0.962405,-0.628266,-0.793747,19.638477,11.706094,-0.663047
2,15,57,1141,0.965334,-0.640473,-0.793259,21.950977,12.518594,1.774453
2,15,58,1161,0.964358,-0.678559,-0.776657,21.013477,14.393594,3.586953
2,15,59,1181,0.966311,-0.697602,-0.752243,16.200977,17.893593,5.586953
2,15,60,1201,0.976565,-0.732758,-0.723434,8.325976,19.643593,7.086953
2,15,61,1221,0.984866,-0.756684,-0.682907,1.950977,20.081093,7.024453
2,15,62,1241,0.995608,-0.769868,-0.658493,-0.736523,16.893593,6.961953
2,15,63,1261,0.994631,-0.777192,-0.658981,-3.861523,10.893594,5.711953
2,15,64,1281,0.998049,-0.768403,-0.667282,0.763477,4.893594,3.461953
2,15,65,1301,0.989749,-0.769868,-0.701462,1.763477,0.643594,4.336953
2,15,66,1321,0.977542,-0.801606,-0.729782,-2.111523,-0.543906,4.461953
2,15,67,1341,0.973147,-0.810395,-0.740524,-3.611523,-2.668906,1.711953
2,15,68,1361,0.969729,-0.790375,-0.766403,-2.236523,-5.168906,-0.038047
2,15,69,1381,0.960452,-0.775239,-0.802048,-1.611523,-6.168906,-1.288047
2,15,70,1401,0.951663,-0.763032,-0.827438,-4.736524,-4.606406,-0.850547
2,15,71,1421,0.947268,-0.758637,-0.836227,-5.674024,-2.856406,-0.600547
2,15,72,1441,0.951663,-0.744965,-0.840622,-2.236523,-2.543906,-2.100547
2,15,73,1461,0.955569,-0.729340,-0.850876,-0.986523,-1.293906,-1.850547
2,15,74,1481,0.953127,-0.726411,-0.848923,-2.049023,1.081094,-0.288047
2,15,75,1501,0.956545,-0.741547,-0.828903,-3.486523,2.893594,0.524453
2,15,76,1521,0.963870,-0.747407,-0.809372,-1.424023,2.956094,-0.100547
2,15,77,1541,0.970706,-0.751801,-0.796677,0.263477,1.143594,-0.538047
2,15,78,1561,0.969241,-0.752778,-0.800095,-0.424023,-0.293906,-0.163047
2,15,79,1581,0.967288,-0.758637,-0.795700,-1.736523,-0.793906,-0.038047
2,15,80,1601,0.968752,-0.765961,-0.789352,-1.299023,-1.481406,-0.225547
2,15,81,1621,0.963870,-0.766450,-0.801071,0.388477,-1.856406,-1.225547
2,15,82,1641,0.961428,-0.757172,-0.809860,0.200977,-0.856406,-1.538047
2,15,83,1661,0.965334,-0.750336,-0.803513,-1.549023,-0.231406,-1.538047
2,15,84,1681,0.965334,-0.752778,-0.800583,-3.174023,-0.231406,-1.663047
2,15,85,1701,0.965823,-0.739594,-0.801559,-2.549023,-0.981406,-1.663047
2,15,86,1721,0.959963,-0.736176,-0.813278,-1.236523,-1.418906,-1.100547
2,15,87,1741,0.958010,-0.738618,-0.817673,0.013477,-0.231406,-1.475547
2,15,88,1761,0.961917,-0.738129,-0.816696,0.075977,0.206094,-1.288047
2,15,89,1781,0.961917,-0.741547,-0.815231,-1.486523,0.456094,-1.288047
2,15,90,1801,0.965823,-0.742524,-0.809372,-2.361523,0.706094,-1.100547
2,15,91,1821,0.971682,-0.742524,-0.792282,-1.861523,0.768594,-1.038047
2,15,92,1841,0.976077,-0.748383,-0.781540,-1.674023,-0.918906,-0.975547
2,15,93,1861,0.965334,-0.747407,-0.795212,-0.674023,-2.106406,-1.163047
2,15,94,1881,0.964358,-0.737641,-0.803513,-0.674023,-2.168906,-1.475547
2,15,95,1901,0.967288,-0.736664,-0.811325,-1.424023,-2.293906,-1.100547
2,15,96,1921,0.965823,-0.731293,-0.818161,-1.049023,-2.606406,-1.475547
2,15,97,1941,0.968264,-0.718110,-0.820602,-1.111523,-1.481406,-0.475547
2,15,98,1961,0.969241,-0.723969,-0.816696,-0.549023,-1.106406,0.274453
2,15,99,1981,0.969241,-0.729340,-0.817184,1.013477,-0.918906,0.711953
2,16,0,0,0.937991,-0.650727,-0.893356,5.575976,4.768594,-1.850547
2,16,1,21,0.927737,-0.644868,-0.903122,8.388476,8.456094,-1.413047
2,16,2,41,0.916995,-0.634614,-0.920700,10.950976,13.643594,-3.725547
2,16,3,61,0.924319,-0.565278,-0.931931,13.013476,22.581093,-7.163047
2,16,4,81,0.939456,-0.435883,-0.927048,11.075976,34.393593,-3.475547
2,16,5,101,0.934573,-0.369965,-0.875290,0.513477,51.268593,14.024453
2,16,6,121,0.920901,-0.386078,-0.729782,-12.674024,62.081093,28.711952
2,16,7,141,0.925295,-0.403168,-0.557907,11.263476,59.143593,32.024452
2,16,8,161,0.931643,-0.426606,-0.411423,40.388477,48.206093,35.836952
2,16,9,181,0.932620,-0.517914,-0.311813,46.700977,37.143593,42.586952
2,16,10,201,0.928225,-0.634614,-0.257126,29.200977,29.268593,49.336952
2,16,11,221,0.914553,-0.805512,-0.251266,-5.611524,23.018593,57.836952
2,16,12,241,0.914553,-0.944184,-0.250778,-26.549023,14.206094,52.649452
2,16,13,261,0.935061,-1.014496,-0.248337,-33.986523,0.143594,45.836952
2,16,14,281,0.950198,-1.122895,-0.294235,-36.049023,-19.168907,35.336952
2,16,15,301,0.956057,-1.230317,-0.385056,-41.674023,-37.231407,23.086952
2,16,16,321,0.961428,-1.291840,-0.498337,-49.736523,-49.543907,7.149453
2,16,17,341,0.966311,-1.271821,-0.629196,-61.674023,-55.668907,-4.850547
2,16,18,361,0.976077,-1.213227,-0.719040,-80.049026,-54.043907,-9.850547
2,16,19,381,0.984866,-1.201508,-0.773239,-87.424026,-55.606407,-8.788047
2,16,20,401,0.963870,-1.201996,-0.861130,-75.611526,-62.106407,-9.663047
2,16,21,421,0.945315,-1.205903,-0.980759,-58.049023,-66.356407,-22.913048
2,16,22,441,0.934084,-1.112641,-1.093552,-45.611523,-62.793907,-31.100548
2,16,23,461,0.923831,-1.053071,-1.162888,-48.361523,-52.168907,-26.538048
2,16,24,481,0.901370,-1.024262,-1.208298,-61.111523,-41.856407,-22.475548
2,16,25,501,0.908206,-0.980317,-1.176071,-63.924023,-29.481407,-26.913048
2,16,26,521,0.947756,-0.931977,-1.108200,-52.236523,-27.856407,-30.600548
2,16,27,541,0.977542,-0.852387,-1.112595,-23.986523,-36.856407,-33.538048
2,16,28,561,0.975100,-0.799653,-1.211716,2.638477,-41.981407,-29.850548
2,16,29,581,0.937991,-0.793793,-1.271774,13.325976,-36.918907,-29.100548
2,16,30,601,0.936038,-0.779145,-1.267380,20.325977,-26.918907,-32.475548
2,16,31,621,0.921389,-0.711762,-1.271286,22.200977,-16.043907,-34.038048
2,16,32,641,0.923342,-0.642426,-1.239548,14.263476,-3.793906,-30.725548
2,16,33,661,0.936038,-0.580414,-1.186325,12.950976,10.393594,-24.600548
2,16,34,681,0.961428,-0.557465,-1.092087,17.763477,15.456094,-22.538048
2,16,35,701,0.971682,-0.539399,-1.035934,32.263477,15.581094,-21.913048
2,16,36,721,0.956545,-0.522797,-1.013474,38.388477,16.768593,-18.538048
2,16,37,741,0.955081,-0.522797,-0.980759,34.575977,22.581093,-11.538047
2,16,38,761,0.946292,-0.553559,-0.914841,25.263477,27.206093,-5.350547
2,16,39,781,0.949221,-0.544770,-0.866989,25.638477,24.956093,-0.850547
2,16,40,801,0.936038,-0.573090,-0.877243,31.638477,20.331093,1.961953
2,16,41,821,0.921389,-0.626313,-0.882614,37.638477,19.956093,0.774453
2,16,42,841,0.916506,-0.639496,-0.858200,35.075977,20.893593,0.274453
2,16,43,861,0.910647,-0.662446,-0.834274,29.763477,22.768593,1.399453
2,16,44,881,0.906252,-0.681977,-0.822067,25.638477,24.956093,1.336953
2,16,45,901,0.921877,-0.686860,-0.783981,18.700977,26.393593,2.274453
2,16,46,921,0.934573,-0.700043,-0.760056,21.950977,21.331093,1.524453
2,16,47,941,0.922366,-0.717621,-0.783005,28.638477,16.143593,-2.288047
2,16,48,961,0.915042,-0.721528,-0.814255,32.075977,14.768594,-7.413047
2,16,49,981,0.920413,-0.676606,-0.824020,25.075977,18.768593,-8.100547
2,16,50,1001,0.934573,-0.629731,-0.794724,16.388477,23.331093,-4.288047
2,16,51,1021,0.966799,-0.647309,-0.731735,7.138476,24.268593,1.086953
2,16,52,1041,0.974124,-0.667328,-0.694626,11.450976,21.331093,0.149453
2,16,53,1061,0.988772,-0.660981,-0.665817,14.075976,17.956093,0.274453
2,16,54,1081,0.992190,-0.681977,-0.657516,12.950976,11.018594,1.649453
2,16,55,1101,0.981448,-0.708832,-0.685349,14.075976,5.581094,0.211953
2,16,56,1121,0.972659,-0.714203,-0.701462,10.700976,3.456094,-0.225547
2,16,57,1141,0.988284,-0.701996,-0.686325,6.388476,1.393594,2.211953
2,16,58,1161,0.981936,-0.722993,-0.720505,10.638476,-2.168906,3.399453
2,16,59,1181,0.969241,-0.755219,-0.762009,9.888476,-2.606406,1.961953
2,16,60,1201,0.976077,-0.762055,-0.784958,7.950976,-2.668906,-1.100547
2,16,61,1221,0.976565,-0.744965,-0.814743,4.825976,-1.856406,-2.038047
2,16,62,1241,0.974612,-0.731782,-0.819626,-0.049023,1.143594,-1.600547
2,16,63,1261,0.977053,-0.732758,-0.806931,-5.299024,3.956094,0.149453
2,16,64,1281,0.996584,-0.746430,-0.779587,-2.986523,1.706094,1.024453
2,16,65,1301,0.981936,-0.755219,-0.808395,3.450977,-1.418906,0.649453
2,16,66,1321,0.962405,-0.770356,-0.822067,3.263477,-0.606406,0.024453
2,16,67,1341,0.975588,-0.763520,-0.814743,0.200977,-0.481406,-0.975547
2,16,68,1361,0.962893,-0.757172,-0.827438,0.888477,-2.293906,-1.163047
2,16,69,1381,0.955081,-0.755219,-0.846481,1.325977,-1.418906,-1.850547
2,16,70,1401,0.951174,-0.753754,-0.840134,-1.736523,0.018594,-1.600547
2,16,71,1421,0.956545,-0.745942,-0.824997,-2.674023,-0.043906,-1.475547
2,16,72,1441,0.959963,-0.731782,-0.825974,-0.986523,-0.981406,-2.225547
2,16,73,1461,0.960940,-0.726899,-0.834763,1.325977,-2.106406,-2.975547
2,16,74,1481,0.954104,-0.728364,-0.850388,0.575977,-2.356406,-2.100547
2,16,75,1501,0.958499,-0.739594,-0.850876,-0.049023,-0.543906,-1.600547
2,16,76,1521,0.959475,-0.741059,-0.836716,-1.361523,0.768594,-1.913047
2,16,77,1541,0.964846,-0.732758,-0.816208,-1.049023,1.206094,-2.413047
2,16,78,1561,0.966799,-0.721528,-0.810837,-0.736523,-0.106406,-2.413047
2,16,79,1581,0.970217,-0.713227,-0.813278,0.138477,-1.293906,-2.163047
2,16,80,1601,0.969729,-0.712250,-0.818161,-0.299023,-1.793906,-1.163047
2,16,81,1621,0.966799,-0.715668,-0.822067,0.075977,-1.356406,-0.788047
2,16,82,1641,0.963870,-0.719086,-0.827438,-1.236523,-0.856406,-0.538047
2,16,83,1661,0.960940,-0.711274,-0.832809,0.138477,-0.793906,-0.975547
2,16,84,1681,0.956545,-0.712739,-0.837692,-0.549023,-0.543906,0.461953
2,16,85,1701,0.952639,-0.726411,-0.828415,-0.486523,-0.293906,0.586953
2,16,86,1721,0.956545,-0.729340,-0.820602,0.138477,-0.668906,-0.663047
2,16,87,1741,0.963870,-0.706391,-0.817184,1.013477,-1.481406,-0.725547
2,16,88,1761,0.962405,-0.702485,-0.817673,-0.174023,-2.043906,0.899453
2,16,89,1781,0.963870,-0.715180,-0.817673,1.075977,-2.231406,0.649453
2,16,90,1801,0.961428,-0.719575,-0.825974,1.388477,-2.231406,0.649453
2,16,91,1821,0.957034,-0.727875,-0.833298,0.138477,-0.481406,0.274453
2,16,92,1841,0.956057,-0.724946,-0.825974,-1.424023,0.893594,0.461953
2,16,93,1861,0.961917,-0.745453,-0.813278,-0.799023,1.331094,-0.100547
2,16,94,1881,0.964846,-0.743989,-0.815231,1.200977,-0.293906,-2.538047
2,16,95,1901,0.959475,-0.718598,-0.836716,-1.424023,0.081094,-2.975547
2,16,96,1921,0.961428,-0.697602,-0.836716,-4.424024,2.393594,-2.163047
2,16,97,1941,0.977053,-0.686860,-0.817184,-3.424023,2.018594,-0.850547
2,16,98,1961,0.976565,-0.689789,-0.819626,-0.174023,0.206094,0.336953
2,16,99,1981,0.958499,-0.711274,-0.831833,0.575977,-0.356406,1.149453
2,17,0,0,0.928713,-0.702973,-0.997849,6.013476,0.268594,-10.913047
2,17,1,21,0.932131,-0.631684,-1.013962,6.325976,10.081094,-10.288047
2,17,2,41,0.952639,-0.600434,-0.975388,5.138476,17.206093,-8.725547
2,17,3,61,0.950198,-0.535981,-0.946091,10.513476,22.018593,-10.538047
2,17,4,81,0.938479,-0.431977,-0.956833,17.450977,26.206093,-4.600547
2,17,5,101,0.902346,-0.393891,-0.953415,23.013477,34.643593,1.711953
2,17,6,121,0.908206,-0.349946,-0.864548,21.700977,50.081093,6.961953
2,17,7,141,0.927249,-0.325043,-0.735641,10.513476,58.206093,15.899453
2,17,8,161,0.928713,-0.302094,-0.609665,10.825976,63.393593,27.899452
2,17,9,181,0.948733,-0.330414,-0.451950,0.638477,61.143593,43.461952
2,17,10,201,0.966799,-0.390473,-0.311813,18.513477,48.143593,51.149452
2,17,11,221,0.959475,-0.467621,-0.297165,32.388477,35.706093,59.461952
2,17,12,241,0.949709,-0.598481,-0.280075,19.075977,29.831093,67.899452
2,17,13,261,0.958499,-0.774262,-0.274216,3.325977,28.081093,72.211952
2,17,14,281,0.959963,-0.957368,-0.284470,-17.611523,21.956093,73.461952
2,17,15,301,0.958987,-1.101899,-0.286423,-38.799023,8.331094,67.461952
2,17,16,321,0.962893,-1.175141,-0.323044,-34.924023,-13.856406,48.836952
2,17,17,341,0.940920,-1.211274,-0.445114,-31.736523,-33.543907,36.961952
2,17,18,361,0.909670,-1.280610,-0.548141,-36.674023,-43.606407,28.899452
2,17,19,381,0.892581,-1.320649,-0.656052,-47.049023,-46.418907,15.899453
2,17,20,401,0.876467,-1.268891,-0.750778,-68.299026,-43.481407,10.024453
2,17,21,421,0.867190,-1.278168,-0.790329,-91.861526,-37.043907,11.961953
2,17,22,441,0.884280,-1.342621,-0.761520,-89.674026,-39.231407,5.586953
2,17,23,461,0.898440,-1.321625,-0.773239,-67.799026,-48.043907,-11.600547
2,17,24,481,0.902834,-1.226899,-0.840134,-43.236523,-56.668907,-28.288048
2,17,25,501,0.887209,-1.185883,-0.916306,-39.611523,-63.106407,-41.475548
2,17,26,521,0.881350,-1.209321,-0.988083,-40.486523,-60.231407,-29.038048
2,17,27,541,0.880374,-1.200043,-1.043747,-52.986523,-55.168907,-26.225548
2,17,28,561,0.916995,-1.117036,-1.115036,-42.861523,-52.043907,-40.600548
2,17,29,581,0.926760,-1.029145,-1.172653,-39.174023,-47.793907,-46.913048
2,17,30,601,0.930178,-0.987641,-1.185349,-18.924023,-44.856407,-41.975548
2,17,31,621,0.922366,-0.965668,-1.229294,18.075977,-52.043907,-47.725548
2,17,32,641,0.929690,-0.905610,-1.313766,27.200977,-53.293907,-58.538048
2,17,33,661,0.902346,-0.764008,-1.427048,33.200977,-51.168907,-65.538048
2,17,34,681,0.865725,-0.627289,-1.526657,28.263477,-36.918907,-59.538048
2,17,35,701,0.872073,-0.526703,-1.537399,24.700977,-16.668907,-49.100548
2,17,36,721,0.891116,-0.493012,-1.497849,33.825977,2.706094,-43.913048
2,17,37,741,0.905764,-0.482758,-1.401657,47.763477,14.331094,-46.913048
2,17,38,761,0.920901,-0.415375,-1.316208,51.325977,21.331093,-44.100548
2,17,39,781,0.911624,-0.415864,-1.245895,48.700977,22.018593,-36.975548
2,17,40,801,0.887209,-0.425141,-1.212204,56.013477,25.893593,-28.913048
2,17,41,821,0.861819,-0.425141,-1.166306,62.075977,32.268593,-21.850548
2,17,42,841,0.840823,-0.471528,-1.091110,66.325974,42.393593,-18.413048
2,17,43,861,0.830081,-0.561371,-1.011032,51.325977,51.206093,-13.975547
2,17,44,881,0.813479,-0.614594,-0.939255,27.888477,56.831093,-12.350547
2,17,45,901,0.837893,-0.551118,-0.809372,13.013476,57.518593,-15.100547
2,17,46,921,0.884768,-0.483735,-0.720016,14.075976,44.081093,-12.225547
2,17,47,941,0.886721,-0.482270,-0.708298,29.825977,36.581093,-9.475547
2,17,48,961,0.895510,-0.502778,-0.686813,32.888477,35.831093,-6.600547
2,17,49,981,0.931155,-0.532563,-0.630173,25.263477,34.893593,-3.225547
2,17,50,1001,0.954104,-0.561371,-0.607712,24.450977,34.331093,-4.475547
2,17,51,1021,0.985354,-0.546235,-0.558884,5.450976,34.081093,0.274453
2,17,52,1041,1.008303,-0.589692,-0.511520,-12.236524,27.393593,8.586953
2,17,53,1061,1.019534,-0.640961,-0.529099,-7.549024,17.831093,8.524453
2,17,54,1081,1.006838,-0.670258,-0.583298,2.263477,11.956094,5.024453
2,17,55,1101,1.021975,-0.687348,-0.590134,3.450977,11.706094,2.211953
2,17,56,1121,1.028811,-0.694672,-0.596481,-1.924023,7.518594,2.024453
2,17,57,1141,1.015139,-0.682465,-0.629684,-3.424023,2.018594,0.961953
2,17,58,1161,1.004397,-0.681977,-0.681442,-7.424024,-2.043906,2.524453
2,17,59,1181,0.987307,-0.684418,-0.724899,-9.049024,-4.793906,3.461953
2,17,60,1201,0.979495,-0.699067,-0.756149,-1.799023,-7.418906,1.961953
2,17,61,1221,0.953616,-0.704438,-0.818649,3.638477,-8.293906,1.024453
2,17,62,1241,0.944338,-0.718110,-0.856247,-2.299023,-5.293906,0.961953
2,17,63,1261,0.937991,-0.701020,-0.874802,-8.924024,-1.606406,0.649453
2,17,64,1281,0.941897,-0.690766,-0.858688,-12.799024,-0.043906,1.649453
2,17,65,1301,0.952639,-0.690278,-0.852341,-10.111524,-1.543906,2.649453
2,17,66,1321,0.945315,-0.694184,-0.862106,-2.361523,-3.543906,2.024453
2,17,67,1341,0.940432,-0.703461,-0.872360,1.888477,-4.856406,0.961953
2,17,68,1361,0.928713,-0.712250,-0.889938,2.075977,-4.356406,0.274453
2,17,69,1381,0.926760,-0.703950,-0.884079,-2.674023,-1.418906,-1.850547
2,17,70,1401,0.940920,-0.669770,-0.859177,-7.236524,-0.481406,-1.413047
2,17,71,1421,0.953616,-0.652680,-0.840622,-6.924024,-1.731406,1.149453
2,17,72,1441,0.955081,-0.673676,-0.840134,3.513477,-2.981406,0.274453
2,17,73,1461,0.949221,-0.681489,-0.848923,3.513477,-3.481406,0.899453
2,17,74,1481,0.934084,-0.695161,-0.858688,-0.986523,-1.168906,1.524453
2,17,75,1501,0.943850,-0.699067,-0.829880,-6.236524,1.706094,1.336953
2,17,76,1521,0.953127,-0.683930,-0.807907,-6.861524,0.706094,0.899453
2,17,77,1541,0.960940,-0.675629,-0.804977,-2.174023,-2.981406,1.649453
2,17,78,1561,0.957522,-0.685883,-0.825974,2.200977,-5.356406,0.711953
2,17,79,1581,0.949709,-0.662934,-0.853806,0.263477,-4.731406,1.836953
2,17,80,1601,0.939944,-0.684418,-0.866013,-2.861523,-1.918906,3.649453
2,17,81,1621,0.939456,-0.705414,-0.862106,-2.861523,-0.106406,2.649453
2,17,82,1641,0.940432,-0.715180,-0.857712,-2.861523,1.206094,0.649453
2,17,83,1661,0.953127,-0.688325,-0.833298,-3.736523,3.206094,-0.038047
2,17,84,1681,0.974124,-0.686371,-0.804489,-4.736524,0.768594,1.336953
2,17,85,1701,0.963870,-0.691743,-0.813278,-0.236523,-3.356406,1.211953
2,17,86,1721,0.952639,-0.694672,-0.838181,1.888477,-4.356406,-0.288047
2,17,87,1741,0.948245,-0.675629,-0.857712,-1.424023,-2.418906,0.274453
2,17,88,1761,0.950686,-0.666840,-0.847946,-4.236524,-0.356406,1.524453
2,17,89,1781,0.958010,-0.670258,-0.837204,-2.674023,-0.168906,2.711953
2,17,90,1801,0.949709,-0.688325,-0.837692,0.575977,-1.293906,2.711953
2,17,91,1821,0.948245,-0.681977,-0.843552,0.200977,-1.418906,2.399453
2,17,92,1841,0.946780,-0.690278,-0.848923,-2.361523,-0.418906,3.961953
2,17,93,1861,0.948733,-0.709809,-0.837692,-1.736523,0.268594,2.836953
2,17,94,1881,0.948733,-0.700532,-0.833786,-1.299023,-0.356406,2.774453
