label,rep,idx,t_ms,ax,ay,az,gx,gy,gz
1,1,0,0,0.044031,-0.081136,-1.110690,12.600039,26.653439,-0.061445
1,1,1,22,0.065027,0.003824,-0.985690,21.412539,38.403439,2.251055
1,1,2,41,0.094813,0.013102,-0.942233,18.537539,19.465939,0.813555
1,1,3,61,0.064539,-0.001058,-0.985690,4.287539,5.465938,-3.561445
1,1,4,81,0.067957,0.029215,-0.965671,2.600039,16.590939,-2.998945
1,1,5,101,0.071863,0.057535,-0.966159,-15.399961,18.340939,1.001055
1,1,6,121,0.088953,-0.023519,-0.983737,-26.587461,12.903438,5.376055
1,1,7,141,0.104090,0.006266,-0.948581,-37.024960,9.340938,6.876055
1,1,8,161,0.103113,-0.000082,-0.905612,-4.212461,-6.096562,17.751055
1,1,9,181,0.099207,-0.036703,-0.982761,23.287539,-18.284061,26.001055
1,1,10,201,0.088465,0.050699,-1.007175,9.725039,-27.909061,21.251055
1,1,11,221,0.072840,0.078043,-1.097995,54.475040,-41.346561,24.751055
1,1,12,241,0.087488,-0.021566,-1.154636,105.787537,-30.284061,33.938553
1,1,13,261,0.091883,-0.018636,-1.107272,59.475040,-26.034061,30.876055
1,1,14,281,0.027430,-0.130941,-1.080905,56.662540,-36.159061,44.313553
1,1,15,301,-0.033117,-0.278402,-1.059421,52.037540,-27.909061,44.626053
1,1,16,321,-0.128820,-0.606527,-1.101901,90.537537,6.340938,12.188555
1,1,17,341,0.200770,-0.178304,-0.822116,42.537540,79.528435,30.501055
1,1,18,361,-0.080969,-0.316000,-0.947116,-13.337461,68.653435,-19.436445
1,1,19,381,0.052820,-0.028402,-0.751804,-12.274961,41.965939,-102.748947
1,1,20,401,0.040125,0.196207,-0.657565,-129.462463,15.965938,-59.248947
1,1,21,421,0.240320,0.183512,-0.929538,-246.962463,-68.159065,-36.936447
1,1,22,441,0.210047,0.137614,-1.171237,-137.712463,-34.034061,51.376053
1,1,23,461,0.012293,-0.075277,-1.076511,-84.587463,-55.284061,62.126053
1,1,24,481,-0.068762,0.010660,-1.173190,-96.587463,-53.346561,14.376055
1,1,25,501,0.093836,0.161539,-1.331393,-37.024960,-8.221562,17.563555
1,1,26,521,0.047449,0.175211,-1.054050,-22.712461,2.903438,30.313555
1,1,27,541,-0.017004,0.210367,-1.291354,12.725039,-54.596561,20.938555
1,1,28,561,-0.025305,0.103434,-1.541354,44.912540,-85.971565,45.001053
1,1,29,581,-0.075109,-0.110922,-1.687839,27.475039,-43.284061,61.751053
1,1,30,601,-0.246008,-0.107015,-1.880710,28.350039,75.403435,72.938553
1,1,31,621,-0.279699,-0.191000,-2.222507,68.037537,318.465942,19.251055
1,1,32,641,-0.371496,-0.115316,-2.136081,77.787537,542.028442,-99.936447
1,1,33,661,-0.342687,0.044840,-1.948581,39.662540,689.153442,-206.811447
1,1,34,681,0.311121,0.411051,-1.407077,15.475039,659.778442,-203.311447
1,1,35,701,0.649012,0.225504,-0.746433,15.475039,431.965942,-53.436447
1,1,36,721,0.500574,0.054606,-0.957858,-38.274960,280.278442,-8.061445
1,1,37,741,0.269129,0.448649,-1.120456,35.975040,330.590942,11.688555
1,1,38,761,0.252527,0.419840,-0.841647,85.412537,426.590942,61.751053
1,1,39,781,0.254969,0.195719,-0.492526,100.537537,407.590942,48.438553
1,1,40,801,0.395594,0.177164,-0.219577,26.037539,364.153442,3.001055
1,1,41,821,0.527918,0.176676,-0.160495,25.037539,325.215942,21.063555
1,1,42,841,0.566004,0.058024,0.024564,42.850040,293.153442,20.938555
1,1,43,861,0.649988,0.006266,0.102200,3.162539,265.778442,-1.311445
1,1,44,881,0.587488,0.010172,0.198392,-46.899960,254.090942,-10.686445
1,1,45,901,0.534266,-0.037191,0.308743,-64.774963,240.465942,-16.373945
1,1,46,921,0.387781,-0.029379,0.506985,-69.774963,228.903442,-19.248945
1,1,47,941,0.312098,-0.069418,0.619778,-74.462463,210.840942,-14.436445
1,1,48,961,0.168543,-0.081625,0.703274,-50.399960,205.403442,-12.873945
1,1,49,981,0.133387,-0.108480,0.875638,-42.837460,195.528442,-13.998945
1,1,50,1001,0.084070,-0.152914,1.035306,-69.087463,164.778442,-7.311445
1,1,51,1021,-0.006750,-0.170980,1.143216,-74.587463,130.153442,2.313555
1,1,52,1041,-0.000402,-0.216390,1.307767,-46.149960,107.778435,15.688555
1,1,53,1061,-0.110266,-0.355551,1.425931,19.412539,67.903435,27.563555
1,1,54,1081,0.040613,-0.204183,1.442044,46.162540,9.153438,20.563555
1,1,55,1101,0.149012,-0.246664,1.314114,16.475039,-60.721561,36.313553
1,1,56,1121,0.191492,-0.362875,1.252103,9.787539,-113.534065,18.813555
1,1,57,1141,0.241785,-0.420980,1.132962,8.787539,-159.159058,-15.998945
1,1,58,1161,0.189051,-0.221761,0.937649,18.037539,-177.096558,-30.811445
1,1,59,1181,0.279383,0.142496,0.647122,6.912539,-173.846558,-44.248947
1,1,60,1201,0.295008,0.093668,0.714017,43.350040,-176.534058,11.063555
1,1,61,1221,0.355555,-0.109945,0.752591,80.100037,-201.471558,22.938555
1,1,62,1241,0.450281,-0.050863,0.492825,102.537537,-236.846558,32.626053
1,1,63,1261,0.422449,-0.054281,0.459134,119.037537,-254.909058,27.688555
1,1,64,1281,0.527430,-0.088949,0.513821,64.037537,-276.909058,-5.498945
1,1,65,1301,0.392176,-0.076254,0.304837,-9.774961,-365.034058,-46.186447
1,1,66,1321,0.406336,-0.021078,-0.076511,-43.212460,-405.346558,-56.811447
1,1,67,1341,0.397547,0.022379,-0.351413,12.225039,-387.221558,-58.936447
1,1,68,1361,0.438563,0.029215,-0.591647,13.662539,-389.971558,-57.686447
1,1,69,1381,0.444910,0.094156,-0.748874,-31.462461,-403.034058,-69.186447
1,1,70,1401,0.530848,0.268473,-1.040378,-97.962463,-408.409058,-100.686447
1,1,71,1421,0.522547,0.437418,-1.221042,-58.274960,-327.596558,-102.373947
1,1,72,1441,0.338953,0.460856,-1.264987,-67.462463,-300.784058,-105.436447
1,1,73,1461,0.462000,0.422770,-1.491061,-96.899963,-286.971558,-98.998947
1,1,74,1481,0.567957,0.487711,-1.520847,-76.337463,-216.034058,-106.311447
1,1,75,1501,0.511805,0.545328,-1.410495,-22.524961,-132.659058,-79.373947
1,1,76,1521,0.338953,0.547770,-1.268893,1.412539,-114.096565,-47.748947
1,1,77,1541,0.464930,0.812907,-1.257175,63.037540,-114.471565,-23.748945
1,1,78,1561,0.415613,0.602457,-1.421237,362.475037,-107.284065,-5.748945
1,1,79,1581,0.393641,-0.114828,-1.397311,326.037537,-79.346565,-24.623945
1,1,80,1601,0.595789,-0.033285,-1.301608,170.725037,-12.596562,-9.186445
1,1,81,1621,0.579188,-0.006918,-1.220065,74.975037,-31.909061,0.188555
1,1,82,1641,0.258875,-0.160238,-0.679050,-36.649960,-63.534061,4.501055
1,1,83,1661,0.320399,0.188883,-1.113132,-132.462463,-84.159065,4.438555
1,1,84,1681,0.258875,0.294840,-1.361179,70.725037,-87.721565,64.751053
1,1,85,1701,0.136805,0.131266,-1.302585,116.725037,-34.346561,102.938553
1,1,86,1721,0.068934,0.108317,-1.575046,24.850039,-53.784061,143.313553
1,1,87,1741,0.151453,0.184489,-1.410495,12.975039,-29.909061,168.376053
1,1,88,1761,0.287684,-0.038168,-1.108249,100.975037,29.215939,164.126053
1,1,89,1781,0.227625,-0.283773,-0.855319,67.475037,35.215939,144.501053
1,1,90,1801,0.004481,-0.350668,-0.889499,172.600037,42.965939,119.188553
1,1,91,1821,0.375574,-0.463949,-1.197116,255.475037,33.090939,123.751053
1,1,92,1841,0.726160,-0.785238,-1.174655,246.912537,90.840935,50.001053
1,1,93,1861,0.501551,-0.727133,-0.811862,215.725037,48.153439,-17.186445
1,1,94,1881,0.426356,-0.445883,-0.711276,129.537537,7.840938,-37.623947
1,1,95,1901,0.262781,-0.218343,-0.560886,63.537540,-49.159061,-18.936445
1,1,96,1921,0.121668,-0.091879,-0.477878,-14.962461,-143.096558,26.063555
1,1,97,1941,0.264246,-0.130453,-0.533054,-137.587463,-75.659065,68.188553
1,1,98,1961,0.424402,-0.361898,-0.556491,-146.962463,-27.346561,43.751053
1,1,99,1981,0.291102,-0.315511,-0.459811,-138.649963,-11.721562,2.626055
1,2,0,0,0.087000,0.033121,-0.977878,-62.899960,-10.284062,-20.061445
1,2,1,21,0.076258,0.058024,-0.947604,-57.274960,-11.784062,-12.436445
1,2,2,41,0.122645,0.020426,-1.010593,-60.399960,-9.409062,-11.248945
1,2,3,61,0.110926,0.041910,-1.048190,-64.149963,-19.346561,-12.561445
1,2,4,81,0.120692,0.029215,-1.086276,-54.899960,-19.659061,-17.186445
1,2,5,101,0.122156,0.034098,-1.075534,-44.587460,-10.221562,-24.186445
1,2,6,121,0.090906,0.062906,-1.005710,-29.649961,-3.096562,-28.123945
1,2,7,141,0.099207,0.079020,-0.993015,-19.774961,0.278438,-30.873945
1,2,8,161,0.122645,0.123942,-1.031589,-16.899961,10.715938,-32.311447
1,2,9,181,0.114832,0.162516,-1.047702,-13.837461,12.215938,-28.373945
1,2,10,201,0.101160,0.154703,-1.008151,-15.337461,6.403438,-21.186445
1,2,11,221,0.109461,0.150309,-0.995944,-13.024961,-1.096562,-13.873945
1,2,12,241,0.126551,0.110758,-1.003757,-12.149961,-1.534062,-11.436445
1,2,13,261,0.110438,0.073160,-1.039401,-21.962461,-0.034062,-15.498945
1,2,14,281,0.119227,0.093668,-1.121921,-33.774960,-2.346562,-21.436445
1,2,15,301,0.088465,0.122477,-1.078464,-40.337460,-3.034062,-19.998945
1,2,16,321,0.101649,0.123453,-1.033054,-34.524960,-1.346562,-15.748945
1,2,17,341,0.127527,0.104410,-1.004245,-29.649961,-0.596562,-14.873945
1,2,18,361,0.120692,0.093180,-0.960300,-24.212461,-2.159062,-15.936445
1,2,19,381,0.116297,0.108317,-0.951022,-15.587461,-4.909062,-16.373945
1,2,20,401,0.098719,0.130778,-0.924655,1.287539,2.590938,-16.248945
1,2,21,421,0.078211,0.221598,-0.912936,-0.524961,0.965938,-13.811445
1,2,22,441,0.108484,0.199625,-0.900729,3.100039,0.903438,-6.998945
1,2,23,461,0.089442,0.197672,-0.880710,4.100039,-1.721562,-2.686445
1,2,24,481,0.130945,0.190836,-0.926608,6.162539,0.090938,-4.311445
1,2,25,501,0.128992,0.203532,-0.913913,11.287539,1.153438,0.126055
1,2,26,521,0.113367,0.179117,-0.896823,16.975039,2.403438,3.626055
1,2,27,541,0.105067,0.164469,-0.934421,5.975039,-6.971562,2.626055
1,2,28,561,0.098231,0.176676,-0.970554,0.100039,-6.596562,1.876055
1,2,29,581,0.089930,0.170328,-0.990085,-1.837461,-4.409062,1.188555
1,2,30,601,0.077234,0.164469,-1.000339,-7.899961,-5.784062,-3.061445
1,2,31,621,0.027918,0.184489,-1.006198,-10.337461,-6.284062,-4.373945
1,2,32,641,0.026942,0.172282,-1.042331,-7.399961,-2.221562,-4.373945
1,2,33,661,0.028895,0.155192,-1.027194,-5.212461,-3.034062,-2.123945
1,2,34,681,0.015223,0.142008,-0.987643,-2.274961,-4.721562,-3.623945
1,2,35,701,0.041102,0.143473,-0.985690,-2.462461,-2.596562,-3.811445
1,2,36,721,0.056727,0.128336,-0.963229,-2.587461,-0.221562,-3.936445
1,2,37,741,0.056727,0.136149,-0.938815,0.225039,-2.971562,-2.498945
1,2,38,761,0.064051,0.133707,-0.925143,3.350039,-5.409062,-2.373945
1,2,39,781,0.084070,0.129801,-0.923190,9.225039,-8.221562,-4.186445
1,2,40,801,0.082117,0.127360,-0.922702,7.225039,-10.534062,-6.623945
1,2,41,821,0.102625,0.123942,-0.973483,-12.462461,-10.471562,8.438555
1,2,42,841,0.065516,0.164957,-0.932956,-45.149960,67.278435,21.001055
1,2,43,861,0.066004,0.217692,-0.819186,-12.712461,97.028435,2.563555
1,2,44,881,0.146570,0.205485,-0.922702,21.350039,36.840939,-22.748945
1,2,45,901,0.141199,0.309489,-1.249851,-12.399961,-19.846561,-33.498947
1,2,46,921,0.205164,0.362711,-1.649265,-51.149960,22.340939,-28.436445
1,2,47,941,0.333582,0.356364,-1.979343,-67.024963,133.840942,-0.748945
1,2,48,961,0.223231,0.641032,-2.097018,24.912539,268.903442,47.313553
1,2,49,981,0.272059,0.640543,-2.138034,89.287537,326.465942,79.376053
1,2,50,1001,0.469813,0.467203,-2.206393,39.475040,355.153442,68.188553
1,2,51,1021,0.622645,0.521891,-2.040378,-15.337461,371.090942,51.813553
1,2,52,1041,0.501063,0.349039,-1.731296,-62.649960,378.278442,40.313553
1,2,53,1061,0.406824,0.274821,-1.302585,-109.087463,403.215942,38.376053
1,2,54,1081,0.319910,0.349528,-0.976413,-34.774960,375.840942,76.626053
1,2,55,1101,0.429774,0.086344,-0.948093,-13.837461,316.465942,68.376053
1,2,56,1121,0.576258,0.037516,-0.846530,-28.899961,283.965942,35.813553
1,2,57,1141,0.506434,0.131754,-0.704440,-44.337460,248.840942,31.313555
1,2,58,1161,0.270594,0.057535,-0.483737,-41.212460,264.090942,49.626053
1,2,59,1181,0.168055,-0.000570,-0.349460,-49.212460,291.340942,67.001053
1,2,60,1201,0.302820,-0.050863,-0.304538,-48.399960,279.903442,60.438553
1,2,61,1221,0.313563,-0.040121,-0.232761,-53.149960,238.778442,50.626053
1,2,62,1241,0.224695,-0.019125,-0.177585,-38.712460,192.465942,43.188553
1,2,63,1261,0.168543,-0.133383,0.008939,-59.837460,174.653442,51.126053
1,2,64,1281,0.069910,-0.270101,0.425442,-117.837463,243.215942,40.626053
1,2,65,1301,-0.118078,-0.213949,0.667142,-146.024963,297.465942,24.001055
1,2,66,1321,-0.116613,-0.217855,1.019192,-122.649963,295.965942,47.876053
1,2,67,1341,-0.125402,-0.343832,1.334622,-74.462463,263.278442,69.126053
1,2,68,1361,-0.073644,-0.448812,1.778958,4.037539,183.715942,78.688553
1,2,69,1381,0.070887,-0.546468,2.572903,28.475039,98.153435,53.813553
1,2,70,1401,0.020106,-0.572347,2.615384,75.225037,-45.284061,15.001055
1,2,71,1421,0.050867,-0.549886,1.751126,116.537537,-140.721558,9.938555
1,2,72,1441,0.080652,-0.433676,1.135892,90.787537,-171.596558,-16.748945
1,2,73,1461,0.085535,-0.332601,1.005032,55.975040,-193.409058,-42.123947
1,2,74,1481,0.067957,-0.246664,0.964993,43.100040,-232.159058,-49.061447
1,2,75,1501,0.052332,-0.224691,0.829251,41.162540,-267.159058,-53.998947
1,2,76,1521,0.057703,-0.215414,0.631009,49.475040,-293.346558,-63.061447
1,2,77,1541,0.029871,-0.177816,0.443509,44.537540,-331.721558,-72.811447
1,2,78,1561,-0.038976,-0.136312,0.273099,33.350040,-381.284058,-90.498947
1,2,79,1581,-0.039953,-0.097738,0.085599,23.037539,-414.346558,-105.498947
1,2,80,1601,-0.135168,-0.021566,-0.070163,18.850039,-446.159058,-128.061447
1,2,81,1621,-0.342687,0.053141,-0.257663,15.975039,-493.221558,-134.123947
1,2,82,1641,-0.427648,0.016031,-0.947116,67.162537,-520.471558,-139.311447
1,2,83,1661,-0.220129,0.062906,-1.817722,203.287537,-400.971558,-121.936447
1,2,84,1681,0.046473,0.219157,-2.406101,231.537537,-258.159058,-81.936447
1,2,85,1701,0.091883,0.457926,-2.252780,41.475040,-269.784058,-58.936447
1,2,86,1721,0.057703,0.706461,-1.982761,-136.899963,-347.659058,-60.623947
1,2,87,1741,0.074793,0.903727,-1.948093,-141.774963,-292.784058,-48.561447
1,2,88,1761,0.183680,0.990153,-1.962741,15.475039,-156.784058,-21.248945
1,2,89,1781,0.263758,0.817789,-1.728366,113.975037,-52.596561,37.251053
1,2,90,1801,0.373621,0.421305,-1.400241,104.287537,-2.846562,63.813553
1,2,91,1821,0.342860,0.187418,-1.090671,65.162537,-20.846561,53.376053
1,2,92,1841,0.441004,0.129313,-0.980319,31.975039,-77.034065,51.688553
1,2,93,1861,0.460535,0.135172,-0.978854,14.912539,-94.784065,47.501053
1,2,94,1881,0.695399,0.079996,-1.587741,-48.087460,-85.034065,-10.373945
1,2,95,1901,0.469324,0.163004,-2.633151,-89.024963,2.903438,-42.436447
1,2,96,1921,0.155848,0.043864,-1.243503,161.287537,99.840935,142.626053
1,2,97,1941,0.503992,-0.269125,-0.432956,102.475037,38.090939,134.438553
1,2,98,1961,0.225672,-0.204183,-0.306491,109.162537,-75.221565,101.688553
1,2,99,1981,0.339442,-0.226644,-0.761081,90.787537,-109.846565,28.251055
1,3,0,0,0.112391,-0.128500,-1.237155,-43.399960,15.528438,-1.686445
1,3,1,21,0.030848,-0.107504,-1.364108,-61.649960,46.215939,6.626055
1,3,2,41,0.052332,-0.152426,-1.449558,-59.712460,65.778435,10.563555
1,3,3,61,0.176844,-0.126058,-2.116550,-13.462461,61.465939,-48.248947
1,3,4,81,0.063563,0.133219,-2.222018,5.037539,128.653442,-44.686447
1,3,5,101,0.054774,0.307047,-1.953952,11.225039,164.403442,-14.811445
1,3,6,121,0.084070,0.261637,-1.785007,13.662539,201.528442,0.688555
1,3,7,141,0.064051,0.061442,-1.639011,-18.524961,239.590942,2.313555
1,3,8,161,0.086512,0.079996,-1.318698,-48.587460,329.778442,3.563555
1,3,9,181,0.069422,0.103434,-1.401706,-14.399961,262.903442,2.751055
1,3,10,201,0.066004,0.137614,-1.617038,-45.212460,245.340942,12.438555
1,3,11,221,0.103113,0.079020,-1.470065,-65.337463,299.465942,10.626055
1,3,12,241,0.043055,0.023844,-1.024265,-72.837463,331.153442,9.188555
1,3,13,261,-0.139562,0.024821,-0.524265,-52.337460,351.778442,27.563555
1,3,14,281,-0.162512,0.001871,-0.225925,-26.649961,368.715942,44.626053
1,3,15,301,0.022059,-0.036215,-0.027683,-4.712461,350.840942,50.626053
1,3,16,321,0.205164,-0.043539,0.127591,-1.462461,303.028442,44.188553
1,3,17,341,0.454188,-0.032797,0.164700,-10.212461,241.840942,29.563555
1,3,18,361,0.606043,-0.007406,0.145657,-29.649961,208.465942,37.813553
1,3,19,381,0.711512,-0.074301,0.165677,-52.837460,209.840942,28.313555
1,3,20,401,0.712977,-0.163656,0.214017,-59.962460,209.278442,15.063555
1,3,21,421,0.637781,-0.206136,0.315091,-51.462460,223.403442,11.126055
1,3,22,441,0.566004,-0.194418,0.604642,-19.774961,249.465942,9.376055
1,3,23,461,0.377527,-0.134359,0.951321,13.162539,253.590942,18.813555
1,3,24,481,0.331629,-0.104574,1.403470,28.412539,211.715942,24.313555
1,3,25,501,0.350672,-0.062094,1.741360,20.162539,131.965942,14.126055
1,3,26,521,0.460047,-0.050863,1.760403,22.725039,25.465939,0.126055
1,3,27,541,0.545985,-0.028402,1.477689,30.162539,-50.409061,-8.686445
1,3,28,561,0.636317,0.001383,1.093899,30.350039,-98.221565,-11.936445
1,3,29,581,0.713953,0.033121,0.843411,26.787539,-130.659058,-14.498945
1,3,30,601,0.744227,0.029215,0.644192,29.662539,-148.596558,-16.936445
1,3,31,621,0.730555,0.034098,0.523587,22.412539,-132.909058,-20.623945
1,3,32,641,0.685633,0.070231,0.554349,9.350039,-118.159065,-19.061445
1,3,33,661,0.601649,0.122477,0.655911,7.225039,-114.784065,-7.311445
1,3,34,681,0.551844,0.105875,0.735501,20.225039,-123.846565,7.813555
1,3,35,701,0.546473,0.022379,0.700833,24.787539,-163.534058,15.813555
1,3,36,721,0.534266,-0.042562,0.581692,12.662539,-203.784058,10.813555
1,3,37,741,0.499110,-0.071371,0.463528,0.725039,-235.721558,-3.248945
1,3,38,761,0.455652,-0.100179,0.278958,-11.212461,-270.659058,-22.186445
1,3,39,781,0.387781,-0.072347,0.087064,-10.337461,-302.346558,-39.561447
1,3,40,801,0.321863,-0.038168,-0.135104,-8.024961,-328.221558,-54.498947
1,3,41,821,0.271570,0.011149,-0.325534,1.350039,-337.471558,-63.748947
1,3,42,841,0.157801,0.039469,-0.608249,20.787539,-344.284058,-62.936447
1,3,43,861,0.121180,0.032633,-1.052585,52.662540,-341.909058,-62.123947
1,3,44,881,0.177820,0.035563,-1.437839,71.850037,-304.846558,-71.436447
1,3,45,901,0.189051,0.174235,-1.742526,12.037539,-268.846558,-62.623947
1,3,46,921,0.267176,0.406168,-1.785983,-55.649960,-247.721558,-39.248947
1,3,47,941,0.320887,0.440348,-1.767429,-85.649963,-193.534058,-17.811445
1,3,48,961,0.314051,0.406657,-1.612643,-81.337463,-144.034058,-4.123945
1,3,49,981,0.271570,0.426188,-1.585300,-67.087463,-124.784065,3.063555
1,3,50,1001,0.320887,0.455973,-1.551120,-29.462461,-112.471565,3.251055
1,3,51,1021,0.342371,0.532145,-1.529636,26.912539,-103.596565,16.001055
1,3,52,1041,0.377039,0.454996,-1.421726,64.287537,-44.346561,36.251053
1,3,53,1061,0.378992,0.288492,-1.179538,68.975037,-21.409061,48.813553
1,3,54,1081,0.339442,0.160074,-0.900729,67.975037,-22.159061,41.688553
1,3,55,1101,0.277430,0.091227,-0.820163,62.912540,-46.471561,35.438553
1,3,56,1121,0.314539,0.023356,-1.008640,41.975040,-61.784061,19.563555
1,3,57,1141,0.306727,0.042887,-1.049167,12.662539,-53.346561,8.876055
1,3,58,1161,0.251063,0.128336,-0.937839,8.100039,-43.409061,10.251055
1,3,59,1181,0.208582,0.137125,-0.788425,18.037539,-52.971561,16.626055
1,3,60,1201,0.201746,0.030680,-0.782565,32.725040,-65.159065,15.688555
1,3,61,1221,0.202234,-0.050863,-0.956393,30.662539,-62.659061,2.563555
1,3,62,1241,0.185633,-0.011801,-1.046237,2.412539,-52.346561,-8.186445
1,3,63,1261,0.328211,-0.033285,-1.522800,-29.649961,-69.659065,-68.186447
1,3,64,1281,0.094813,0.184000,-2.127780,57.787540,-43.721561,-39.998947
1,3,65,1301,0.130945,0.132731,-1.266940,106.100037,82.903435,44.563553
1,3,66,1321,0.197352,-0.044027,-0.524753,27.912539,17.403439,36.938553
1,3,67,1341,0.219813,-0.135824,-0.600925,-21.024961,-45.659061,1.626055
1,3,68,1361,0.203699,-0.056722,-1.047214,-18.024961,-41.284061,-21.498945
1,3,69,1381,0.159266,0.043375,-1.237155,3.412539,-7.909062,-21.123945
1,3,70,1401,0.127527,0.062906,-1.121921,2.412539,19.840939,-8.436445
1,3,71,1421,0.136317,0.038004,-0.938815,2.850039,8.028438,-3.873945
1,3,72,1441,0.144129,0.017496,-0.957370,-0.899961,-4.471562,-8.061445
1,3,73,1461,0.157313,0.040446,-0.996433,-7.462461,-3.784062,-8.498945
1,3,74,1481,0.161219,0.062418,-1.039401,-9.899961,1.278438,-9.186445
1,3,75,1501,0.140223,0.088297,-1.032077,-10.337461,3.778438,-2.998945
1,3,76,1521,0.154383,0.099039,-0.993503,-2.774961,6.403438,2.126055
1,3,77,1541,0.166590,0.070719,-0.949558,15.350039,7.653438,7.563555
1,3,78,1561,0.166102,0.038981,-0.992038,11.287539,6.028438,0.501055
1,3,79,1581,0.149988,0.045328,-1.002292,10.350039,0.778438,3.751055
1,3,80,1601,0.166102,0.023356,-1.014499,10.725039,1.903438,6.813555
1,3,81,1621,0.180262,-0.004476,-0.996921,11.725039,4.403438,7.001055
1,3,82,1641,0.169520,0.007242,-1.018893,-1.087461,7.715938,3.126055
1,3,83,1661,0.155359,0.017985,-0.989108,-0.712461,7.153438,4.251055
1,3,84,1681,0.163660,0.032145,-0.985202,2.850039,1.528438,3.876055
1,3,85,1701,0.163172,0.047770,-1.001804,1.225039,-0.471562,5.438555
1,3,86,1721,0.170496,0.029215,-0.992038,2.912539,-1.346562,7.313555
1,3,87,1741,0.169520,0.008219,-0.992526,4.412539,-1.409062,7.063555
1,3,88,1761,0.188563,-0.004476,-0.992526,1.725039,1.090938,4.501055
1,3,89,1781,0.183192,-0.002035,-0.993015,2.287539,2.840938,-0.311445
1,3,90,1801,0.169520,0.024332,-0.991550,0.162539,3.215938,-0.436445
1,3,91,1821,0.176844,0.032633,-0.982761,1.662539,1.590938,0.876055
1,3,92,1841,0.181727,0.016031,-0.994968,2.850039,0.028438,0.938555
1,3,93,1861,0.180262,0.002848,-1.009616,1.725039,0.215938,0.126055
1,3,94,1881,0.177820,0.003824,-0.996433,0.100039,2.153438,-0.561445
1,3,95,1901,0.178309,0.008219,-0.991061,-0.587461,0.840938,-1.311445
1,3,96,1921,0.176844,0.017985,-0.998386,0.600039,0.215938,-1.561445
1,3,97,1941,0.177820,0.007242,-0.992038,0.162539,0.340938,-1.561445
1,3,98,1961,0.186609,0.006266,-0.996433,-0.587461,0.278438,-3.686445
1,3,99,1981,0.174402,0.030192,-0.993503,0.225039,1.840938,-2.311445
1,4,0,0,0.138270,-0.042562,-1.132663,-31.649961,6.403438,-1.561445
1,4,1,21,0.104090,-0.036703,-1.273776,-47.274960,21.528439,1.813555
1,4,2,41,0.130457,-0.036215,-1.299167,-60.024960,25.778439,-4.811445
1,4,3,61,0.245692,-0.028402,-1.809421,-13.837461,23.653439,-27.623945
1,4,4,81,0.179285,0.122477,-1.870456,23.912539,95.653435,-26.311445
1,4,5,101,0.209070,0.272379,-1.839206,72.537537,128.340942,-11.373945
1,4,6,121,0.221766,0.158610,-1.812351,78.350037,163.778442,-5.373945
1,4,7,141,0.191981,0.097086,-1.630222,10.350039,233.340942,-5.748945
1,4,8,161,0.277918,0.037516,-1.440280,-22.212461,209.590942,-7.686445
1,4,9,181,0.203211,0.019938,-1.353854,-56.149960,146.215942,-3.436445
1,4,10,201,0.184656,0.011149,-1.298190,-73.462463,144.903442,-4.373945
1,4,11,221,0.239832,0.034098,-1.137546,-66.399963,194.028442,-9.373945
1,4,12,241,0.139246,0.089274,-0.889987,-23.962461,225.028442,-3.498945
1,4,13,261,0.085535,0.095621,-0.732761,12.787539,223.153442,15.251055
1,4,14,281,0.189051,0.066813,-0.687839,13.662539,236.715942,20.251055
1,4,15,301,0.282313,0.050699,-0.578464,11.350039,249.715942,15.813555
1,4,16,321,0.329188,0.028727,-0.538425,3.975039,225.090942,17.876055
1,4,17,341,0.438074,0.017985,-0.589206,-11.962461,219.653442,16.126055
1,4,18,361,0.486414,0.047281,-0.558933,-29.149961,229.403442,15.751055
1,4,19,381,0.545496,0.014078,-0.531101,-37.399960,240.653442,14.313555
1,4,20,401,0.561121,0.022867,-0.416843,-49.024960,253.340942,16.063555
1,4,21,421,0.522547,-0.002523,-0.299167,-51.962460,275.903442,22.688555
1,4,22,441,0.485438,-0.027914,-0.113620,-54.149960,317.340942,28.813555
1,4,23,461,0.341395,-0.028890,0.282376,-52.774960,358.465942,34.938553
1,4,24,481,0.215418,-0.047933,0.744778,-39.774960,373.215942,38.501053
1,4,25,501,0.137781,-0.069418,1.344876,-12.212461,353.840942,42.626053
1,4,26,521,0.103113,-0.010824,2.001614,39.662540,255.215942,49.813553
1,4,27,541,0.266688,-0.012289,2.280911,97.662537,82.653435,55.813553
1,4,28,561,0.607508,-0.126547,2.090482,88.975037,-38.409061,37.751053
1,4,29,581,0.643641,-0.145101,1.441067,38.725040,-97.409065,9.188555
1,4,30,601,0.682215,-0.141195,0.964017,4.600039,-153.221558,-3.311445
1,4,31,621,0.806238,-0.117269,0.683743,-18.337461,-173.346558,-22.623945
1,4,32,641,0.791590,-0.063070,0.490384,-18.399961,-168.096558,-39.811447
1,4,33,661,0.764246,0.018961,0.402493,-17.024961,-154.159058,-47.186447
1,4,34,681,0.743250,0.095133,0.384915,-17.649961,-143.596558,-47.311447
1,4,35,701,0.713465,0.171305,0.415677,-14.087461,-132.596558,-38.498947
1,4,36,721,0.700770,0.184000,0.464993,-12.024961,-132.784058,-24.873945
1,4,37,741,0.678309,0.161539,0.473294,-0.587461,-152.909058,-10.498945
1,4,38,761,0.681727,0.098551,0.385403,14.975039,-182.971558,-0.373945
1,4,39,781,0.674402,0.014078,0.212064,19.912539,-211.096558,-1.311445
1,4,40,801,0.634852,-0.022543,0.003079,14.475039,-227.784058,-13.936445
1,4,41,821,0.599695,-0.016683,-0.098972,13.037539,-217.346558,-22.498945
1,4,42,841,0.586024,0.013102,-0.103854,10.412539,-217.159058,-25.373945
1,4,43,861,0.550867,0.038981,-0.209811,-1.774961,-255.534058,-23.623945
1,4,44,881,0.487879,0.029703,-0.454929,-8.587461,-281.596558,-26.998945
1,4,45,901,0.460047,0.043864,-0.627780,-3.774961,-272.284058,-31.936445
1,4,46,921,0.389246,0.056559,-0.775729,2.350039,-255.596558,-36.748947
1,4,47,941,0.349207,0.079020,-0.941257,3.287539,-246.909058,-38.936447
1,4,48,961,0.267176,0.069742,-1.231296,-0.149961,-240.221558,-45.936447
1,4,49,981,0.315027,0.106852,-1.484226,-9.837461,-217.471558,-49.811447
1,4,50,1001,0.385828,0.208903,-1.456882,-10.837461,-154.346558,-47.436447
1,4,51,1021,0.311121,0.276285,-1.236179,-0.962461,-118.346565,-40.311447
1,4,52,1041,0.276942,0.329996,-1.267917,-5.837461,-139.284058,-26.123945
1,4,53,1061,0.306727,0.352457,-1.359714,-15.962461,-146.971558,-14.686445
1,4,54,1081,0.341883,0.341715,-1.393893,-15.212461,-124.221565,-6.561445
1,4,55,1101,0.313563,0.293375,-1.294284,2.225039,-91.221565,0.876055
1,4,56,1121,0.291102,0.270426,-1.229343,13.600039,-94.159065,3.813555
1,4,57,1141,0.302332,0.257731,-1.168308,15.662539,-68.284065,9.813555
1,4,58,1161,0.238856,0.246989,-1.025241,18.037539,-55.846561,11.563555
1,4,59,1181,0.225672,0.217692,-0.986179,33.287540,-62.096561,16.876055
1,4,60,1201,0.238367,0.125407,-0.989597,39.850040,-53.346561,14.001055
1,4,61,1221,0.225672,0.102946,-0.955417,30.475039,-50.221561,5.001055
1,4,62,1241,0.199793,0.121500,-0.875827,24.287539,-67.971565,6.313555
1,4,63,1261,0.166590,0.110758,-0.789890,26.412539,-75.721565,9.876055
1,4,64,1281,0.368738,0.034586,-1.684421,-5.149961,-132.846558,-82.311447
1,4,65,1301,-0.017004,0.462321,-2.713229,69.037537,-62.034061,-52.186447
1,4,66,1321,-0.227941,0.198649,-1.416843,109.162537,108.340935,117.313553
1,4,67,1341,0.320399,-0.206136,-0.514499,17.725039,53.153439,76.626053
1,4,68,1361,0.228113,-0.202718,-0.371921,-12.899961,-43.909061,20.438555
1,4,69,1381,0.180750,-0.093832,-0.851413,-24.024961,-60.409061,-27.748945
1,4,70,1401,0.201746,0.060953,-1.210300,-2.649961,-37.784061,-41.186447
1,4,71,1421,0.078699,0.161539,-1.290866,4.975039,-0.659062,-26.498945
1,4,72,1441,0.072352,0.193766,-1.078952,14.662539,15.903438,2.063555
1,4,73,1461,0.146082,0.080973,-0.905124,14.162539,12.590938,13.813555
1,4,74,1481,0.150965,0.062906,-0.907565,14.475039,0.028438,10.751055
1,4,75,1501,0.140223,0.042399,-0.993503,13.600039,-8.034062,4.938555
1,4,76,1521,0.148035,0.024332,-1.045261,15.912539,1.715938,1.813555
1,4,77,1541,0.137781,0.044840,-1.031589,12.912539,8.840938,-1.311445
1,4,78,1561,0.127039,0.057047,-0.996433,10.475039,7.028438,3.001055
1,4,79,1581,0.131434,0.037516,-0.988620,7.412539,-1.471562,7.501055
1,4,80,1601,0.143641,0.014078,-0.994968,4.162539,-5.596562,9.313555
1,4,81,1621,0.150477,-0.003011,-0.996921,1.912539,-4.596562,7.688555
1,4,82,1641,0.149988,0.001871,-0.992526,1.350039,-1.721562,3.751055
1,4,83,1661,0.144129,0.016520,-0.995944,0.100039,-1.096562,0.001055
1,4,84,1681,0.136805,0.032145,-1.006198,-0.149961,-0.159062,0.626055
1,4,85,1701,0.139734,0.026774,-1.004245,0.600039,0.903438,2.126055
1,4,86,1721,0.134363,0.020426,-0.992038,3.100039,0.840938,2.376055
1,4,87,1741,0.137781,0.017496,-0.994968,4.350039,-1.096562,1.063555
1,4,88,1761,0.140223,0.019449,-0.998386,2.287539,-0.034062,0.126055
1,4,89,1781,0.143641,0.020914,-0.991061,3.350039,0.028438,-1.061445
1,4,90,1801,0.139246,0.022867,-0.997897,5.287539,0.028438,-1.561445
1,4,91,1821,0.138758,0.019938,-0.997897,4.662539,0.903438,-0.311445
1,4,92,1841,0.140223,0.007242,-0.993503,3.162539,0.715938,0.001055
1,4,93,1861,0.140223,0.008707,-1.004245,1.537539,0.340938,-0.186445
1,4,94,1881,0.142664,0.002848,-1.001315,0.287539,1.090938,-0.998945
1,4,95,1901,0.143152,0.011149,-0.991061,0.162539,2.340938,-1.561445
1,4,96,1921,0.142664,0.009684,-0.993015,1.662539,0.403438,-2.873945
1,4,97,1941,0.139246,0.023356,-1.007175,1.662539,1.403438,-2.936445
1,4,98,1961,0.139734,0.019938,-0.992526,2.162539,0.528438,-0.811445
1,4,99,1981,0.151942,0.009684,-0.983249,1.287539,1.840938,-3.061445
1,5,0,0,0.128504,-0.089437,-1.112643,-31.837461,-7.034062,1.188555
1,5,1,21,0.091883,-0.137289,-1.222995,-65.712463,-2.721562,-0.748945
1,5,2,41,-0.009191,-0.158773,-1.386081,-94.462463,10.653438,0.563555
1,5,3,61,0.191004,-0.116293,-1.509616,-78.087463,6.778438,-38.498947
1,5,4,81,0.150477,0.165446,-1.985690,30.537539,72.590935,-45.686447
1,5,5,101,0.049891,0.270914,-1.889011,67.475037,156.153442,-25.436445
1,5,6,121,0.165613,0.238199,-1.649265,30.412539,138.778442,-1.748945
1,5,7,141,0.148524,0.084391,-1.597018,12.850039,159.778442,0.376055
1,5,8,161,0.187586,0.030192,-1.466159,-10.712461,215.215942,-10.436445
1,5,9,181,0.122645,0.052164,-1.357272,-18.962461,183.778442,-19.061445
1,5,10,201,0.113367,0.114664,-1.306003,-27.087461,163.278442,-19.623945
1,5,11,221,0.064051,0.206461,-1.239597,-34.024960,199.215942,-8.123945
1,5,12,241,0.082117,0.186442,-1.113620,-28.399961,244.278442,8.813555
1,5,13,261,0.103113,0.180094,-0.892429,-12.087461,252.840942,23.813555
1,5,14,281,0.097742,0.181071,-0.769382,-2.587461,262.840942,33.376053
1,5,15,301,0.240809,0.121989,-0.755710,-10.399961,268.028442,36.626053
1,5,16,321,0.348719,0.070719,-0.736667,-34.587460,259.840942,40.501053
1,5,17,341,0.399012,0.097086,-0.707370,-55.524960,264.340942,44.063553
1,5,18,361,0.453699,0.046793,-0.725436,-74.399963,265.590942,48.813553
1,5,19,381,0.536219,-0.002523,-0.495944,-77.399963,281.090942,47.438553
1,5,20,401,0.479090,0.000406,-0.269870,-58.274960,290.840942,44.876053
1,5,21,421,0.423914,0.000895,-0.068210,-30.212461,292.153442,51.251053
1,5,22,441,0.458094,-0.060140,0.039212,-19.274961,299.090942,49.688553
1,5,23,461,0.420496,-0.097738,0.281888,-27.899961,307.840942,42.626053
1,5,24,481,0.381434,-0.130453,0.618802,-26.274961,302.590942,40.938553
1,5,25,501,0.344813,-0.174398,1.032376,-10.587461,279.715942,35.376053
1,5,26,521,0.256434,-0.179769,1.390774,12.662539,235.028442,31.063555
1,5,27,541,0.263758,-0.173422,1.850735,42.287540,159.278442,31.188555
1,5,28,561,0.387781,-0.188558,2.103665,59.912540,52.653439,30.313555
1,5,29,581,0.511317,-0.183187,1.759915,60.287540,-59.846561,20.688555
1,5,30,601,0.665613,-0.180746,1.155423,22.350039,-114.846565,6.688555
1,5,31,621,0.764246,-0.134847,0.874173,-11.899961,-123.784065,-10.623945
1,5,32,641,0.807215,-0.069906,0.622220,-22.399961,-143.784058,-19.373945
1,5,33,661,0.807703,-0.043539,0.448880,-26.087461,-145.659058,-28.186445
1,5,34,681,0.798426,-0.007894,0.392239,-21.837461,-129.471558,-35.561447
1,5,35,701,0.763758,0.040446,0.471341,-14.587461,-115.471565,-38.123947
1,5,36,721,0.751063,0.074625,0.544095,-8.087461,-119.471565,-33.498947
1,5,37,741,0.744227,0.074625,0.529935,0.475039,-144.159058,-23.186445
1,5,38,761,0.736414,0.037028,0.373685,1.225039,-167.659058,-16.186445
1,5,39,781,0.693934,-0.002523,0.252103,-1.212461,-175.721558,-13.748945
1,5,40,801,0.666102,-0.032308,0.185696,3.162539,-179.471558,-16.623945
1,5,41,821,0.675867,-0.055746,0.179349,11.162539,-190.409058,-23.686445
1,5,42,841,0.674402,-0.059652,0.041165,0.350039,-227.721558,-35.311447
1,5,43,861,0.627527,-0.034750,-0.173679,-17.024961,-255.471558,-54.186447
1,5,44,881,0.575770,0.051676,-0.354831,-32.399960,-244.471558,-68.561447
1,5,45,901,0.533289,0.186930,-0.318210,-29.149961,-220.221558,-59.686447
1,5,46,921,0.479090,0.197184,-0.304538,-14.649961,-236.846558,-44.998947
1,5,47,941,0.391199,0.132242,-0.612643,-9.837461,-283.346558,-47.873947
1,5,48,961,0.370203,0.141032,-0.949558,5.850039,-281.409058,-55.623947
1,5,49,981,0.356043,0.214274,-1.055026,25.975039,-216.534058,-52.373947
1,5,50,1001,0.320399,0.213297,-1.118503,30.975039,-176.596558,-46.248947
1,5,51,1021,0.302332,0.270914,-1.139499,7.787539,-179.596558,-34.686447
1,5,52,1041,0.297449,0.346598,-1.190768,-20.462461,-184.596558,-20.623945
1,5,53,1061,0.277918,0.352457,-1.270358,-30.774961,-187.909058,-14.936445
1,5,54,1081,0.292567,0.305582,-1.293308,-4.087461,-166.159058,-4.123945
1,5,55,1101,0.284754,0.212321,-1.328464,34.225040,-125.784065,-4.811445
1,5,56,1121,0.251551,0.205485,-1.336276,41.975040,-109.784065,-10.248945
1,5,57,1141,0.229090,0.254801,-1.359714,28.600039,-110.534065,-5.186445
1,5,58,1161,0.241785,0.299235,-1.372897,8.850039,-116.971565,5.813555
1,5,59,1181,0.265223,0.248453,-1.360690,-1.837461,-102.159065,17.126055
1,5,60,1201,0.279383,0.192301,-1.238620,-6.024961,-70.909065,19.126055
1,5,61,1221,0.230067,0.170328,-1.020847,11.850039,-43.846561,22.876055
1,5,62,1241,0.213465,0.052164,-0.758151,46.037540,-34.034061,29.313555
1,5,63,1261,0.447352,-0.065511,-1.271823,54.475040,-73.034065,-30.123945
1,5,64,1281,0.015711,0.248453,-2.445651,114.975037,-33.721561,-50.123947
1,5,65,1301,-0.101965,0.188395,-1.420749,92.537537,120.528435,55.001053
1,5,66,1321,0.238367,-0.020101,-0.621921,-32.149960,42.715939,34.751053
1,5,67,1341,0.200770,-0.015219,-0.535983,-23.024961,-22.659061,13.626055
1,5,68,1361,0.221766,-0.021566,-0.839206,3.725039,-40.159061,-2.561445
1,5,69,1381,0.225672,0.064371,-1.191745,15.475039,-23.159061,-10.061445
1,5,70,1401,0.173914,0.086344,-1.256686,25.975039,12.840938,1.751055
1,5,71,1421,0.199793,0.061442,-1.032077,13.162539,26.528439,13.063555
1,5,72,1441,0.209070,0.030192,-0.860690,-11.712461,5.903438,8.938555
1,5,73,1461,0.219813,0.020426,-0.861179,1.100039,-13.471562,1.563555
1,5,74,1481,0.220789,0.067301,-1.031589,10.287539,-9.659062,-3.623945
1,5,75,1501,0.184656,0.102457,-1.039401,10.725039,0.403438,1.626055
1,5,76,1521,0.194910,0.074137,-0.988132,12.537539,1.590938,5.438555
1,5,77,1541,0.199793,0.046793,-0.987155,11.600039,2.403438,6.376055
1,5,78,1561,0.205164,0.030680,-0.980319,8.662539,-1.659062,5.376055
1,5,79,1581,0.212000,0.028239,-0.994479,10.350039,-1.721562,5.126055
1,5,80,1601,0.207606,0.027750,-0.993503,8.037539,-1.221562,5.126055
1,5,81,1621,0.208582,0.017496,-0.993991,3.662539,-1.346562,4.938555
1,5,82,1641,0.216395,0.002360,-0.991550,-2.399961,-1.534062,3.501055
1,5,83,1661,0.217859,0.003336,-0.977390,-3.149961,1.840938,-0.123945
1,5,84,1681,0.209559,0.027750,-0.980808,-1.399961,0.840938,-2.623945
1,5,85,1701,0.198817,0.051676,-0.995944,1.725039,-0.096562,-1.123945
1,5,86,1721,0.205164,0.048746,-0.991550,4.725039,-0.659062,0.751055
1,5,87,1741,0.199793,0.043375,-0.992526,4.787539,-2.409062,1.813555
1,5,88,1761,0.209070,0.024332,-0.992526,0.850039,-1.159062,2.938555
1,5,89,1781,0.204188,0.018473,-0.993015,-0.274961,-0.721562,2.376055
1,5,90,1801,0.202723,0.013102,-0.998386,-0.337461,0.653438,2.188555
1,5,91,1821,0.201258,0.012614,-0.998874,-2.024961,1.278438,1.313555
1,5,92,1841,0.200770,0.025309,-0.993503,-3.274961,1.278438,1.126055
1,5,93,1861,0.203699,0.034586,-0.992038,-3.337461,1.153438,1.251055
1,5,94,1881,0.203211,0.033610,-0.982272,-2.212461,0.653438,1.938555
1,5,95,1901,0.209559,0.029703,-0.980808,-1.399961,-1.159062,0.938555
1,5,96,1921,0.205164,0.033121,-0.994968,0.037539,-0.159062,0.938555
1,5,97,1941,0.203211,0.031656,-0.992038,-0.212461,0.590938,0.876055
1,5,98,1961,0.206141,0.030192,-0.992526,-0.587461,-1.096562,1.126055
1,5,99,1981,0.202723,0.031656,-0.992526,0.537539,-0.346562,2.063555
1,6,0,0,0.119227,0.003824,-1.168308,-56.149960,15.278438,-30.998945
1,6,1,21,0.109949,-0.060140,-1.362643,-86.837463,23.028439,-44.936447
1,6,2,41,0.203211,0.061930,-1.708835,-63.399960,3.028438,-77.186447
1,6,3,61,0.117762,0.358805,-2.259128,60.912540,72.340935,-78.873947
1,6,4,81,0.116785,0.510660,-2.371433,84.600037,202.028442,-51.811447
1,6,5,101,0.213465,0.463785,-1.891452,16.600039,240.528442,-10.123945
1,6,6,121,0.149988,0.303629,-1.508640,-15.087461,235.840942,11.063555
1,6,7,141,0.251551,0.112711,-1.335788,8.850039,230.965942,17.688555
1,6,8,161,0.201258,0.023356,-1.252780,12.100039,197.028442,8.751055
1,6,9,181,0.111414,0.077067,-1.158542,-13.337461,238.840942,10.188555
1,6,10,201,0.104090,0.165934,-0.825046,-25.774961,274.028442,29.001055
1,6,11,221,0.116785,0.111246,-0.727878,-8.024961,267.340942,41.813553
1,6,12,241,0.205652,-0.027914,-0.644382,-12.024961,272.403442,42.376053
1,6,13,261,0.274988,-0.040121,-0.514987,-38.712460,261.153442,33.876053
1,6,14,281,0.371668,-0.051840,-0.456882,-73.399963,253.528442,28.126055
1,6,15,301,0.467371,-0.004965,-0.287448,-95.774963,241.090942,28.313555
1,6,16,321,0.540125,0.037516,-0.143893,-77.087463,224.965942,34.001053
1,6,17,341,0.602625,0.064371,-0.066257,-44.649960,216.653442,39.813553
1,6,18,361,0.626063,0.077555,-0.045261,-9.649961,215.403442,46.001053
1,6,19,381,0.655848,0.102946,0.002103,11.850039,215.028442,55.313553
1,6,20,401,0.663660,0.069254,0.071927,32.225040,222.840942,60.063553
1,6,21,421,0.614344,0.008219,0.229153,46.287540,241.590942,57.438553
1,6,22,441,0.601649,-0.031820,0.471829,46.037540,247.028442,51.313553
1,6,23,461,0.567957,-0.064535,0.752591,31.600039,226.403442,39.626053
1,6,24,481,0.513758,-0.080160,1.015774,13.975039,194.340942,29.376055
1,6,25,501,0.512293,-0.101156,1.285794,3.975039,151.403442,19.251055
1,6,26,521,0.550379,-0.132406,1.452298,9.475039,89.465935,13.063555
1,6,27,541,0.587977,-0.128011,1.418607,19.037539,38.403439,8.438555
1,6,28,561,0.624598,-0.111898,1.276517,22.787539,-10.096562,4.063555
1,6,29,581,0.688563,-0.102133,1.100247,18.975039,-55.346561,-0.811445
1,6,30,601,0.738856,-0.102621,0.887357,15.787539,-90.846565,-5.623945
1,6,31,621,0.801356,-0.110922,0.680814,1.975039,-116.721565,-15.998945
1,6,32,641,0.798426,-0.088461,0.544095,-20.649961,-125.846565,-29.936445
1,6,33,661,0.747645,-0.023519,0.523099,-37.399960,-122.534065,-40.561447
1,6,34,681,0.705164,0.064371,0.607083,-45.649960,-119.721565,-41.436447
1,6,35,701,0.677820,0.108317,0.659329,-36.087460,-132.721558,-28.873945
1,6,36,721,0.684656,0.077555,0.623685,-27.462461,-163.784058,-16.061445
1,6,37,741,0.667567,0.044840,0.501614,-26.837461,-196.409058,-10.686445
1,6,38,761,0.621180,0.017496,0.316556,-25.962461,-219.471558,-8.498945
1,6,39,781,0.598231,-0.030844,0.132962,-19.024961,-225.909058,-10.936445
1,6,40,801,0.600672,-0.061605,-0.010593,-13.274961,-229.034058,-19.498945
1,6,41,821,0.594324,-0.045492,-0.175143,-17.149961,-231.846558,-29.998945
1,6,42,841,0.574793,-0.010336,-0.329929,-34.337460,-233.159058,-38.561447
1,6,43,861,0.580164,0.037028,-0.415866,-45.837460,-229.346558,-44.186447
1,6,44,881,0.537195,0.093180,-0.575534,-44.274960,-221.534058,-48.061447
1,6,45,901,0.513758,0.144449,-0.746921,-28.774961,-189.971558,-43.373947
1,6,46,921,0.522547,0.110758,-0.829440,7.162539,-166.659058,-38.311447
1,6,47,941,0.548426,0.029703,-1.181491,20.787539,-165.596558,-49.686447
1,6,48,961,0.670496,0.067789,-1.427585,-21.399961,-164.221558,-70.498947
1,6,49,981,0.645106,0.305094,-1.240085,-63.149960,-136.721558,-70.498947
1,6,50,1001,0.613856,0.461344,-0.951511,-40.149960,-115.846565,-41.623947
1,6,51,1021,0.628016,0.362223,-0.955905,7.662539,-126.096565,-18.186445
1,6,52,1041,0.619715,0.275797,-1.160495,0.037539,-140.534058,-13.061445
1,6,53,1061,0.576258,0.281657,-1.226413,-22.899961,-126.221565,-12.623945
1,6,54,1081,0.563074,0.225016,-1.159518,-16.837461,-91.409065,-8.748945
1,6,55,1101,0.539149,0.234293,-0.855319,7.787539,-72.971565,-5.748945
1,6,56,1121,0.467371,0.286051,-0.796237,21.725039,-109.471565,-3.186445
1,6,57,1141,0.418543,0.272867,-0.967136,4.287539,-143.471558,-3.061445
1,6,58,1161,0.399988,0.286539,-1.096530,-16.024961,-143.284058,-7.561445
1,6,59,1181,0.352625,0.304606,-1.081393,-15.212461,-124.784065,-3.123945
1,6,60,1201,0.294031,0.318278,-0.985202,-1.149961,-113.346565,6.001055
1,6,61,1221,0.243250,0.326090,-0.996433,7.162539,-119.159065,12.501055
1,6,62,1241,0.195399,0.269449,-1.156101,9.850039,-114.409065,13.938555
1,6,63,1261,0.218348,0.212321,-1.192722,0.975039,-87.284065,10.626055
1,6,64,1281,0.341883,0.224528,-1.251315,-13.337461,-66.846565,-15.748945
1,6,65,1301,0.333582,0.359782,-1.949069,-2.274961,-46.096561,-42.748947
1,6,66,1321,-0.055578,0.442301,-1.366550,102.662537,50.028439,44.688553
1,6,67,1341,0.237879,0.067789,-0.842624,82.475037,39.215939,49.938553
1,6,68,1361,0.245203,0.020426,-0.587741,22.412539,-3.346562,27.063555
1,6,69,1381,0.260340,-0.003988,-0.746921,13.662539,-37.284061,-2.748945
1,6,70,1401,0.251551,0.056071,-1.027194,11.912539,-32.784061,-18.436445
1,6,71,1421,0.211024,0.153727,-1.201022,25.412539,-7.659062,-20.811445
1,6,72,1441,0.148524,0.201090,-1.144870,28.100039,13.465938,-4.186445
1,6,73,1461,0.173914,0.153239,-0.971530,16.037539,8.965938,9.001055
1,6,74,1481,0.222254,0.107340,-0.884128,10.350039,-2.784062,7.626055
1,6,75,1501,0.220789,0.107828,-0.937839,11.600039,-8.596562,3.188555
1,6,76,1521,0.218836,0.115153,-0.993991,18.350039,-7.096562,3.876055
1,6,77,1541,0.215906,0.091715,-1.021335,20.350039,-3.971562,5.188555
1,6,78,1561,0.218348,0.065348,-1.017917,13.662539,-0.784062,3.626055
1,6,79,1581,0.211024,0.069742,-0.995944,2.975039,0.653438,1.563555
1,6,80,1601,0.209070,0.078531,-0.983249,-1.274961,0.090938,1.001055
1,6,81,1621,0.212977,0.077067,-0.986179,1.475039,-1.284062,-0.311445
1,6,82,1641,0.208094,0.092203,-0.992038,2.350039,-0.596562,-0.936445
1,6,83,1661,0.205652,0.084879,-0.992038,2.662539,-1.471562,-1.498945
1,6,84,1681,0.202234,0.081461,-0.992526,3.412539,0.965938,-2.936445
1,6,85,1701,0.199305,0.096110,-0.992526,1.225039,0.965938,-3.123945
1,6,86,1721,0.200281,0.101969,-0.991061,2.162539,0.215938,-1.123945
1,6,87,1741,0.200281,0.091715,-0.982761,3.850039,-1.471562,0.563555
1,6,88,1761,0.194910,0.085367,-0.992526,5.037539,1.528438,0.938555
1,6,89,1781,0.212977,0.077067,-0.992526,7.225039,2.090938,0.751055
1,6,90,1801,0.213953,0.074137,-0.991550,5.412539,1.340938,0.251055
1,6,91,1821,0.217371,0.080973,-0.985690,3.475039,0.903438,0.313555
1,6,92,1841,0.220789,0.079996,-0.990573,3.662539,-0.346562,1.688555
1,6,93,1861,0.220789,0.070231,-0.993015,4.412539,-0.096562,2.313555
1,6,94,1881,0.218836,0.067301,-0.991550,4.287539,0.653438,2.313555
1,6,95,1901,0.216883,0.063395,-0.986667,2.037539,1.215938,2.001055
1,6,96,1921,0.214442,0.063395,-0.989108,1.287539,0.903438,1.126055
1,6,97,1941,0.216395,0.067301,-0.993015,2.100039,1.403438,1.001055
1,6,98,1961,0.215906,0.068278,-0.992038,2.912539,2.590938,1.313555
1,6,99,1981,0.218348,0.064371,-0.990085,3.287539,1.465938,0.938555
1,7,0,0,0.196375,-0.038656,-1.148288,-35.462460,-4.846562,-8.561445
1,7,1,21,0.181727,-0.151449,-1.388034,-66.774963,5.965938,-33.811447
1,7,2,41,0.141688,-0.048422,-1.375339,-93.212463,44.278439,-51.811447
1,7,3,61,0.197352,0.211344,-1.443210,-69.212463,27.528439,-58.623947
1,7,4,81,0.245203,0.435953,-1.902194,16.850039,71.090935,-37.373947
1,7,5,101,0.266199,0.383219,-1.834811,58.162540,150.840942,-6.873945
1,7,6,121,0.317469,0.293864,-1.711276,53.287540,168.528442,6.751055
1,7,7,141,0.257899,0.190836,-1.522800,55.725040,239.840942,14.251055
1,7,8,161,0.381434,0.103434,-1.263522,60.600040,252.903442,11.688555
1,7,9,181,0.312586,0.046793,-1.167331,32.350040,182.653442,2.001055
1,7,10,201,0.300379,0.071207,-1.169772,7.350039,154.340942,-0.186445
1,7,11,221,0.280848,0.124430,-1.029147,-8.649961,196.090942,4.001055
1,7,12,241,0.250086,0.149821,-0.750827,2.787539,222.215942,14.438555
1,7,13,261,0.269617,0.114664,-0.615573,27.225039,203.090942,28.688555
1,7,14,281,0.386317,-0.009359,-0.672702,30.225039,183.215942,28.126055
1,7,15,301,0.483973,-0.024984,-0.676608,5.475039,181.403442,20.063555
1,7,16,321,0.543055,-0.002035,-0.580417,-15.899961,172.090942,18.876055
1,7,17,341,0.607020,-0.056234,-0.585788,-18.212461,161.215942,19.001055
1,7,18,361,0.694422,-0.119711,-0.615573,-19.399961,165.528442,10.751055
1,7,19,381,0.695399,-0.078207,-0.683444,-26.337461,169.715942,2.188555
1,7,20,401,0.736902,-0.064535,-0.715671,-40.649960,191.465942,-3.748945
1,7,21,421,0.669031,0.001871,-0.566257,-43.774960,224.465942,-7.123945
1,7,22,441,0.578699,0.022379,-0.392917,-24.962461,246.903442,-3.873945
1,7,23,461,0.515711,0.055094,-0.223972,-10.024961,274.653442,0.313555
1,7,24,481,0.444422,0.116129,0.066067,-3.587461,304.340942,7.876055
1,7,25,501,0.369715,0.139567,0.325345,-8.462461,309.278442,17.063555
1,7,26,521,0.313074,0.129801,0.733548,-11.837461,311.653442,21.438555
1,7,27,541,0.237391,0.125407,1.261380,-0.462461,288.090942,30.813555
1,7,28,561,0.193445,0.136149,1.677396,30.725039,222.840942,47.126053
1,7,29,581,0.296473,0.045328,1.971341,58.725040,140.653442,56.126053
1,7,30,601,0.428797,-0.053793,1.907376,65.912537,37.215939,58.501053
1,7,31,621,0.552332,-0.162679,1.395657,42.037540,-42.471561,48.626053
1,7,32,641,0.697840,-0.234945,0.992825,-3.149961,-85.721565,27.376055
1,7,33,661,0.814051,-0.217367,0.779446,-28.649961,-112.221565,9.313555
1,7,34,681,0.865809,-0.197836,0.568509,-29.337461,-126.596565,-3.686445
1,7,35,701,0.883387,-0.168539,0.428372,-35.149960,-124.034065,-22.561445
1,7,36,721,0.798914,-0.066000,0.434232,-25.212461,-106.909065,-34.811447
1,7,37,741,0.748621,0.018961,0.537747,-13.024961,-96.846565,-34.436447
1,7,38,761,0.776453,0.054117,0.608548,-2.024961,-117.659065,-23.873945
1,7,39,781,0.764735,0.050211,0.526517,-0.524961,-140.846558,-13.561445
1,7,40,801,0.712977,0.040446,0.423978,-4.274961,-151.596558,-4.686445
1,7,41,821,0.672938,0.009196,0.373196,-3.774961,-155.784058,2.501055
1,7,42,841,0.690516,-0.049886,0.342923,3.850039,-165.784058,8.313555
1,7,43,861,0.719813,-0.098226,0.260403,6.600039,-184.596558,5.563555
1,7,44,881,0.728113,-0.133871,0.129056,1.787539,-208.784058,-5.248945
1,7,45,901,0.708582,-0.141195,-0.076022,-5.587461,-223.596558,-17.748945
1,7,46,921,0.700770,-0.124594,-0.277194,-12.337461,-225.471558,-27.186445
1,7,47,941,0.707606,-0.070883,-0.471042,-29.587461,-230.159058,-34.686447
1,7,48,961,0.687098,0.002360,-0.743503,-49.274960,-226.096558,-40.811447
1,7,49,981,0.712977,0.008219,-0.918796,-49.524960,-193.909058,-48.936447
1,7,50,1001,0.768152,0.010660,-0.968112,-41.962460,-168.096558,-55.936447
1,7,51,1021,0.692469,0.110270,-1.020358,-31.399961,-148.034058,-60.998947
1,7,52,1041,0.747645,0.240153,-1.097018,-20.212461,-138.596558,-48.373947
1,7,53,1061,0.787684,0.327555,-1.035983,-24.087461,-114.534065,-36.936447
1,7,54,1081,0.754969,0.367106,-0.842136,-10.149961,-80.221565,-15.998945
1,7,55,1101,0.681238,0.309489,-0.697116,28.725039,-70.596565,3.188555
1,7,56,1121,0.651453,0.179117,-0.768405,59.600040,-73.034065,14.813555
1,7,57,1141,0.653406,0.114664,-0.863620,57.475040,-72.534065,10.813555
1,7,58,1161,0.650965,0.140543,-0.843112,44.537540,-66.471565,10.063555
1,7,59,1181,0.637781,0.142985,-0.760593,41.975040,-63.471561,15.063555
1,7,60,1201,0.628504,0.102946,-0.690768,45.225040,-63.346561,19.251055
1,7,61,1221,0.597254,0.031168,-0.772311,39.475040,-76.596565,16.438555
1,7,62,1241,0.597254,-0.032308,-0.922214,14.912539,-83.409065,6.063555
1,7,63,1261,0.580164,0.001871,-0.918308,-2.587461,-76.159065,-4.686445
1,7,64,1281,0.561610,0.060465,-0.848972,-4.587461,-76.471565,-4.061445
1,7,65,1301,0.539149,0.093668,-0.871921,-2.149961,-92.846565,1.501055
1,7,66,1321,0.526942,0.057535,-1.011569,-3.024961,-100.596565,4.876055
1,7,67,1341,0.525965,-0.020590,-1.171237,-14.524961,-89.534065,-2.561445
1,7,68,1361,0.521082,0.012614,-1.107272,-21.337461,-64.534065,-9.436445
1,7,69,1381,0.470301,0.088785,-0.945651,-11.899961,-58.971561,-6.561445
1,7,70,1401,0.426356,0.129313,-0.944186,-4.524961,-78.909065,2.688555
1,7,71,1421,0.420008,0.088297,-1.021823,-7.212461,-83.284065,8.188555
1,7,72,1441,0.388758,0.007731,-1.077976,-14.337461,-73.846565,3.251055
1,7,73,1461,0.363856,0.016031,-1.028659,-18.399961,-62.409061,-6.623945
1,7,74,1481,0.318934,0.090250,-0.946628,-16.712461,-61.721561,-6.498945
1,7,75,1501,0.304285,0.125895,-0.876804,-12.149961,-73.596565,0.501055
1,7,76,1521,0.284266,0.104410,-0.863132,-9.774961,-84.284065,4.626055
1,7,77,1541,0.365809,-0.000570,-1.023288,-2.899961,-95.159065,-15.498945
1,7,78,1561,0.354090,0.100992,-2.009616,-0.212461,-87.096565,-82.498947
1,7,79,1581,0.113367,0.248453,-1.749851,69.475037,47.153439,10.876055
1,7,80,1601,0.253016,0.059977,-0.822116,-3.462461,67.340935,24.251055
1,7,81,1621,0.205164,0.090739,-0.468112,-26.712461,3.715938,6.001055
1,7,82,1641,0.253504,0.014078,-0.700046,4.287539,-38.971561,-2.123945
1,7,83,1661,0.279871,-0.009847,-1.167819,15.100039,-40.221561,-16.186445
1,7,84,1681,0.235438,0.068766,-1.238132,13.100039,3.028438,-7.123945
1,7,85,1701,0.229090,0.103434,-0.968601,6.912539,16.278439,3.876055
1,7,86,1721,0.246180,0.100016,-0.880710,8.475039,0.778438,6.063555
1,7,87,1741,0.253992,0.084879,-0.940280,13.850039,-5.659062,6.313555
1,7,88,1761,0.254481,0.075602,-1.009128,14.037539,-4.596562,6.126055
1,7,89,1781,0.250574,0.050699,-0.991550,13.412539,0.215938,7.376055
1,7,90,1801,0.250574,0.025309,-0.970065,11.225039,-2.221562,3.751055
1,7,91,1821,0.247645,0.030680,-0.993991,7.975039,-2.909062,1.501055
1,7,92,1841,0.245203,0.035563,-0.993015,4.725039,-2.096562,1.313555
1,7,93,1861,0.245692,0.037028,-0.991550,3.600039,-1.346562,2.876055
1,7,94,1881,0.247645,0.031168,-0.985202,4.037539,-0.659062,3.813555
1,7,95,1901,0.246180,0.038004,-0.989597,3.287539,-0.971562,3.751055
1,7,96,1921,0.249598,0.032633,-0.993503,0.225039,-1.034062,1.438555
1,7,97,1941,0.246180,0.039469,-0.986667,-0.462461,1.028438,1.501055
1,7,98,1961,0.246668,0.044840,-0.973483,0.537539,-0.471562,1.876055
1,7,99,1981,0.244227,0.041422,-0.985690,1.350039,-2.034062,2.626055
1,8,0,0,0.282801,-0.049398,-1.164890,107.412537,42.715939,-3.123945
1,8,1,21,0.412195,-0.204183,-1.383640,93.412537,35.653439,0.188555
1,8,2,41,0.409266,-0.295004,-1.619968,39.975040,41.090939,-21.373945
1,8,3,61,0.419520,-0.269125,-1.750827,-18.212461,68.090935,-36.123947
1,8,4,81,0.328699,-0.140218,-1.544772,-36.274960,78.715935,-32.498947
1,8,5,101,0.307703,-0.065023,-1.464694,-2.087461,105.028435,-25.311445
1,8,6,121,0.312586,-0.055746,-1.518893,20.537539,125.528435,-16.936445
1,8,7,141,0.298426,-0.124594,-1.510104,8.412539,162.590942,-18.561445
1,8,8,161,0.343348,-0.122152,-1.362155,-18.962461,195.715942,-24.623945
1,8,9,181,0.365809,-0.116781,-1.223972,-41.149960,159.153442,-29.686445
1,8,10,201,0.274012,-0.040121,-1.102390,-52.587460,157.715942,-24.436445
1,8,11,221,0.309168,-0.022543,-0.954929,-35.712460,190.965942,-16.123945
1,8,12,241,0.347742,-0.015219,-0.832858,-18.712461,207.903442,-12.561445
1,8,13,261,0.338953,0.008707,-0.718601,-15.712461,219.653442,-6.186445
1,8,14,281,0.371668,0.009196,-0.625827,-16.712461,223.778442,0.063555
1,8,15,301,0.455164,0.013590,-0.463718,-14.212461,219.278442,3.501055
1,8,16,321,0.502039,0.034098,-0.446140,-1.899961,211.528442,8.376055
1,8,17,341,0.633875,-0.021078,-0.496433,-11.837461,201.028442,10.001055
1,8,18,361,0.680750,-0.012289,-0.479343,-31.399961,196.840942,7.376055
1,8,19,381,0.701258,0.002360,-0.450534,-42.712460,200.340942,9.126055
1,8,20,401,0.722254,-0.037191,-0.396335,-47.462460,211.528442,7.063555
1,8,21,421,0.694910,-0.033773,-0.288425,-55.837460,220.590942,3.813555
1,8,22,441,0.670008,-0.029867,-0.187351,-63.212460,234.090942,2.501055
1,8,23,461,0.604578,-0.026449,0.034329,-59.962460,245.840942,3.126055
1,8,24,481,0.516199,0.002848,0.285794,-32.649960,253.340942,10.563555
1,8,25,501,0.486414,0.009196,0.613919,9.975039,255.778442,19.188555
1,8,26,521,0.420985,0.043375,0.983548,57.162540,237.403442,27.688555
1,8,27,541,0.296473,0.095621,1.437649,122.662537,193.840942,43.876053
1,8,28,561,0.359461,0.142008,1.654935,186.100037,126.028435,61.751053
1,8,29,581,0.473231,0.133707,1.545560,207.350037,73.153435,67.563553
1,8,30,601,0.659266,0.099528,1.462552,166.537537,23.153439,55.438553
1,8,31,621,0.691981,0.100016,1.289700,103.287537,-38.284061,38.438553
1,8,32,641,0.713953,0.065348,0.999661,38.225040,-94.784065,34.188553
1,8,33,661,0.759363,0.026774,0.743314,-27.149961,-135.784058,25.813555
1,8,34,681,0.780360,-0.004476,0.558743,-57.212460,-158.221558,19.188555
1,8,35,701,0.816492,-0.049398,0.375638,-57.649960,-160.096558,9.876055
1,8,36,721,0.828699,-0.041097,0.275540,-43.337460,-141.471558,-2.748945
1,8,37,741,0.821375,0.023356,0.261868,-32.149960,-122.096565,-10.248945
1,8,38,761,0.813074,0.104899,0.278958,-23.462461,-121.971565,-0.811445
1,8,39,781,0.834559,0.115641,0.237942,-17.399961,-130.909058,16.563555
1,8,40,801,0.835535,0.080973,0.144681,-19.837461,-136.659058,27.563555
1,8,41,821,0.811121,-0.003500,0.048978,-27.774961,-138.096558,31.188555
1,8,42,841,0.837000,-0.069418,0.042142,-28.649961,-139.034058,27.438555
1,8,43,861,0.843348,-0.088461,-0.014011,-19.524961,-148.721558,22.188555
1,8,44,881,0.836024,-0.091879,-0.173679,-14.399961,-156.909058,18.251055
1,8,45,901,0.836512,-0.086996,-0.262058,-27.837461,-148.971558,11.938555
1,8,46,921,0.816004,-0.031332,-0.205417,-56.399960,-140.659058,6.001055
1,8,47,941,0.761805,0.058512,-0.164890,-67.087463,-161.534058,12.938555
1,8,48,961,0.730067,0.040934,-0.381198,-62.774960,-192.346558,25.751055
1,8,49,981,0.724207,-0.047445,-0.648776,-58.712460,-187.096558,24.126055
1,8,50,1001,0.763270,-0.142172,-0.654636,-55.399960,-146.409058,10.938555
1,8,51,1021,0.705652,-0.094320,-0.421726,-41.087460,-124.659065,4.751055
1,8,52,1041,0.622156,-0.001058,-0.517429,-19.524961,-151.221558,8.376055
1,8,53,1061,0.632899,-0.002035,-0.845554,-30.524961,-175.346558,15.938555
1,8,54,1081,0.651453,-0.075765,-1.050632,-68.712463,-163.596558,9.001055
1,8,55,1101,0.690027,-0.135336,-1.004245,-90.337463,-136.846558,-8.061445
1,8,56,1121,0.622645,-0.066000,-0.867526,-75.087463,-118.971565,-20.061445
1,8,57,1141,0.587000,0.038981,-0.897800,-45.837460,-115.971565,-19.686445
1,8,58,1161,0.551844,0.083903,-1.046237,-39.212460,-113.159065,-14.373945
1,8,59,1181,0.581141,0.039957,-1.192233,-55.774960,-96.659065,-11.936445
1,8,60,1201,0.584559,0.017496,-1.056979,-63.837460,-64.034065,-17.186445
1,8,61,1221,0.530360,0.058512,-0.856784,-36.774960,-48.596561,-15.873945
1,8,62,1241,0.509363,0.043864,-0.838229,-2.587461,-62.659061,-13.998945
1,8,63,1261,0.523524,0.024821,-1.094577,-5.524961,-88.534065,-21.061445
1,8,64,1281,0.532313,0.106364,-1.219089,-27.962461,-85.846565,-26.373945
1,8,65,1301,0.532801,0.191813,-1.112155,-28.462461,-70.471565,-16.311445
1,8,66,1321,0.515223,0.200602,-0.984714,-13.087461,-62.471561,0.501055
1,8,67,1341,0.482996,0.151774,-0.925632,4.412539,-72.159065,8.251055
1,8,68,1361,0.393152,0.091715,-1.054538,0.225039,-93.471565,3.563555
1,8,69,1381,0.382410,0.052653,-1.176608,-11.962461,-89.534065,-3.561445
1,8,70,1401,0.385340,0.081461,-1.108249,-17.712461,-66.159065,-14.436445
1,8,71,1421,0.344324,0.182047,-0.960300,-17.774961,-56.221561,-14.998945
1,8,72,1441,0.351160,0.232340,-0.928073,-9.337461,-66.596565,-10.623945
1,8,73,1461,0.448328,0.229410,-1.572604,-8.524961,-75.971565,-29.811445
1,8,74,1481,0.240809,0.325114,-1.722995,17.725039,12.340938,14.251055
1,8,75,1501,0.270106,0.170328,-0.950534,10.037539,60.215939,29.126055
1,8,76,1521,0.276942,0.174723,-0.584811,-6.399961,25.090939,22.188555
1,8,77,1541,0.305262,0.134684,-0.688327,12.787539,-9.659062,16.376055
1,8,78,1561,0.337000,0.091227,-1.016452,20.912539,-26.159061,8.626055
1,8,79,1581,0.317957,0.107828,-1.096530,23.662539,-2.846562,4.938555
1,8,80,1601,0.309168,0.117106,-0.946140,20.725039,5.465938,6.501055
1,8,81,1621,0.316004,0.113688,-0.903659,18.162539,-4.971562,6.001055
1,8,82,1641,0.313074,0.106852,-0.946628,18.850039,-9.784062,8.188555
1,8,83,1661,0.312098,0.080485,-0.967624,17.287539,-9.846562,8.938555
1,8,84,1681,0.322352,0.057047,-0.980319,20.412539,-6.909062,6.251055
1,8,85,1701,0.313074,0.050211,-0.971530,19.600039,-3.534062,2.376055
1,8,86,1721,0.308192,0.059000,-0.982272,15.912539,-4.159062,-0.561445
1,8,87,1741,0.306727,0.063395,-0.985202,8.225039,-3.909062,-0.748945
1,8,88,1761,0.305262,0.056071,-0.989597,0.662539,-5.284062,0.188555
1,8,89,1781,0.308680,0.053141,-0.970065,-2.337461,-4.034062,0.376055
1,8,90,1801,0.305262,0.059489,-0.960788,0.850039,-3.284062,0.126055
1,8,91,1821,0.305262,0.065836,-0.971530,1.600039,-3.971562,-0.623945
1,8,92,1841,0.302332,0.072184,-0.985690,2.100039,-2.284062,-1.186445
1,8,93,1861,0.300379,0.079996,-0.971042,0.037539,-1.159062,-0.623945
1,8,94,1881,0.303797,0.072672,-0.956393,0.287539,-1.971562,0.563555
1,8,95,1901,0.302332,0.067789,-0.962253,2.725039,-1.721562,1.188555
1,8,96,1921,0.300867,0.065836,-0.978854,2.350039,-2.346562,1.126055
1,8,97,1941,0.298426,0.060953,-0.977390,1.537539,-1.596562,1.438555
1,8,98,1961,0.300867,0.056071,-0.971042,2.100039,-1.409062,0.688555
1,8,99,1981,0.300379,0.047770,-0.973483,1.537539,-0.846562,-0.311445
1,9,0,0,0.320399,0.095133,-1.132663,-5.899961,12.028438,-0.123945
1,9,1,21,0.304285,0.001383,-1.311862,3.475039,6.840938,-4.436445
1,9,2,41,0.381922,-0.107992,-1.639987,22.162539,9.840938,-25.686445
1,9,3,61,0.398524,-0.034261,-1.750827,4.037539,70.528435,-48.623947
1,9,4,81,0.362879,0.168864,-1.499851,-9.837461,96.778435,-44.936447
1,9,5,101,0.321375,0.210856,-1.379733,9.787539,104.590935,-26.561445
1,9,6,121,0.316004,0.141032,-1.332858,18.475039,120.340935,-14.311445
1,9,7,141,0.311610,0.099039,-1.276706,14.600039,138.403442,-10.748945
1,9,8,161,0.338465,0.092692,-1.217136,21.162539,176.465942,-9.686445
1,9,9,181,0.365809,0.087809,-1.142917,22.475039,157.090942,-11.623945
1,9,10,201,0.322840,0.111735,-1.056491,5.787539,154.965942,-9.311445
1,9,11,221,0.356043,0.121989,-0.914401,-0.837461,166.153442,-0.561445
1,9,12,241,0.390711,0.076578,-0.847507,3.412539,161.403442,6.626055
1,9,13,261,0.462488,0.023356,-0.826511,4.100039,164.278442,7.376055
1,9,14,281,0.503504,0.023356,-0.797214,2.787539,165.465942,3.376055
1,9,15,301,0.551844,0.051676,-0.718112,4.725039,173.215942,3.313555
1,9,16,321,0.566981,0.070231,-0.623874,12.350039,176.153442,6.501055
1,9,17,341,0.596277,0.061930,-0.553561,23.975039,177.153442,9.563555
1,9,18,361,0.633875,0.022379,-0.509128,15.600039,173.215942,6.876055
1,9,19,381,0.687586,0.032145,-0.402683,6.787539,175.215942,3.438555
1,9,20,401,0.697840,0.049235,-0.356784,2.225039,173.278442,3.938555
1,9,21,421,0.743250,0.049723,-0.344089,-10.837461,168.090942,9.438555
1,9,22,441,0.777918,0.031656,-0.262546,-15.149961,169.278442,12.751055
1,9,23,461,0.786707,-0.016195,-0.232272,-21.649961,166.840942,13.876055
1,9,24,481,0.780360,-0.030355,-0.220554,-22.774961,173.778442,13.876055
1,9,25,501,0.784266,-0.060629,-0.145847,-24.462461,184.965942,12.501055
1,9,26,521,0.767664,-0.054281,-0.036960,-25.087461,200.528442,11.501055
1,9,27,541,0.770106,-0.047445,0.082181,-35.024960,206.215942,10.563555
1,9,28,561,0.725672,-0.015707,0.269681,-37.837460,201.965942,13.251055
1,9,29,581,0.682215,-0.034261,0.424466,-34.837460,202.340942,19.251055
1,9,30,601,0.662684,-0.069418,0.688626,-27.524961,194.153442,18.938555
1,9,31,621,0.616785,-0.121664,0.909817,-6.524961,172.778442,14.001055
1,9,32,641,0.559656,-0.089926,1.111478,17.100039,152.403442,8.251055
1,9,33,661,0.563563,-0.073324,1.313138,42.162540,112.215935,8.126055
1,9,34,681,0.575281,-0.040609,1.368802,52.412540,56.215939,6.001055
1,9,35,701,0.639735,-0.016683,1.261380,47.412540,-2.909062,5.001055
1,9,36,721,0.716395,0.005289,1.012845,36.725040,-46.596561,1.938555
1,9,37,741,0.784266,0.030192,0.815579,13.037539,-79.284065,-1.248945
1,9,38,761,0.803309,0.048258,0.653958,-5.899961,-97.284065,-3.936445
1,9,39,781,0.800379,0.055582,0.540189,-15.399961,-97.659065,-8.498945
1,9,40,801,0.747156,0.084391,0.560696,-9.274961,-90.096565,-9.873945
1,9,41,821,0.713465,0.116617,0.624661,9.225039,-88.221565,-2.873945
1,9,42,841,0.760828,0.112223,0.610501,15.037539,-108.346565,8.001055
1,9,43,861,0.790125,0.086344,0.514798,4.912539,-130.971558,12.376055
1,9,44,881,0.784754,0.042887,0.373685,-8.087461,-153.909058,12.626055
1,9,45,901,0.753992,0.013102,0.217435,-13.649961,-152.971558,11.001055
1,9,46,921,0.775965,0.001383,0.194974,-16.212461,-150.409058,9.001055
1,9,47,941,0.819910,0.006754,0.111966,-20.524961,-164.659058,9.438555
1,9,48,961,0.812586,-0.004476,0.026517,-33.462460,-172.534058,5.501055
1,9,49,981,0.777430,-0.010336,0.001126,-42.337460,-170.221558,-1.061445
1,9,50,1001,0.717371,0.009684,-0.020358,-40.649960,-176.284058,-2.373945
1,9,51,1021,0.685633,0.018961,-0.138522,-35.087460,-190.534058,2.126055
1,9,52,1041,0.689539,-0.025961,-0.333347,-31.774961,-202.846558,3.563555
1,9,53,1061,0.706141,-0.047933,-0.464694,-39.087460,-198.346558,1.813555
1,9,54,1081,0.663172,-0.017172,-0.473483,-44.337460,-183.784058,2.376055
1,9,55,1101,0.623621,-0.045004,-0.435886,-32.899960,-179.221558,1.251055
1,9,56,1121,0.603602,-0.037191,-0.478366,-23.462461,-188.971558,-2.436445
1,9,57,1141,0.565027,-0.011312,-0.705417,-26.337461,-235.409058,-2.123945
1,9,58,1161,0.521570,-0.036215,-0.956882,-33.337460,-245.096558,-8.811445
1,9,59,1181,0.544520,-0.089926,-1.062839,-22.524961,-210.159058,-18.186445
1,9,60,1201,0.521082,-0.097250,-1.007175,-17.149961,-174.596558,-33.936447
1,9,61,1221,0.414637,0.002360,-1.008151,-17.024961,-184.221558,-41.561447
1,9,62,1241,0.368250,0.053141,-1.265476,-33.462460,-202.596558,-46.623947
1,9,63,1261,0.432215,0.113688,-1.390476,-60.649960,-182.096558,-49.123947
1,9,64,1281,0.415125,0.180582,-1.291843,-55.337460,-141.909058,-43.811447
1,9,65,1301,0.336512,0.159098,-1.218112,-32.712460,-111.971565,-42.123947
1,9,66,1321,0.286707,0.226481,-1.247409,-27.962461,-122.596565,-43.561447
1,9,67,1341,0.263270,0.315836,-1.328464,-26.524961,-126.471565,-37.748947
1,9,68,1361,0.248133,0.366129,-1.357761,-24.524961,-105.721565,-23.686445
1,9,69,1381,0.245203,0.358317,-1.311862,-7.337461,-79.471565,-11.373945
1,9,70,1401,0.231043,0.259196,-1.229831,5.225039,-48.034061,-2.998945
1,9,71,1421,0.193445,0.214762,-1.101901,4.100039,-28.096561,-2.311445
1,9,72,1441,0.204676,0.216715,-0.990573,6.162539,-25.471561,-3.561445
1,9,73,1461,0.292078,0.236735,-1.052097,2.287539,-35.221561,-26.373945
1,9,74,1481,0.299891,0.316324,-1.510104,23.225039,-43.471561,-40.373947
1,9,75,1501,0.049891,0.387125,-1.313815,76.850037,15.153438,6.813555
1,9,76,1521,0.195399,0.207438,-0.951022,83.037537,34.153439,30.376055
1,9,77,1541,0.255457,0.077555,-0.748386,62.475040,-1.534062,25.438555
1,9,78,1561,0.243250,0.006266,-0.795261,52.662540,-17.534061,7.063555
1,9,79,1581,0.239832,0.006754,-0.985202,47.162540,-24.346561,-9.248945
1,9,80,1601,0.206629,0.051676,-1.116061,46.850040,-13.784062,-13.873945
1,9,81,1621,0.160731,0.093180,-1.157565,49.662540,3.028438,-2.123945
1,9,82,1641,0.154383,0.058024,-1.070163,37.912540,9.590938,14.563555
1,9,83,1661,0.198817,-0.018636,-0.980319,21.725039,6.840938,19.876055
1,9,84,1681,0.219813,-0.078695,-0.972507,11.662539,0.215938,13.813555
1,9,85,1701,0.229578,-0.089437,-0.996921,1.725039,1.465938,3.751055
1,9,86,1721,0.217371,-0.039633,-0.998874,-5.024961,3.528438,-1.936445
1,9,87,1741,0.210535,0.014078,-0.992526,-9.524961,6.465938,-2.498945
1,9,88,1761,0.207117,0.038981,-0.999851,-10.149961,5.715938,0.001055
1,9,89,1781,0.208582,0.040446,-1.001804,-7.712461,7.903438,3.251055
1,9,90,1801,0.208094,0.041910,-0.990573,-3.649961,7.903438,6.376055
1,9,91,1821,0.215906,0.026774,-0.979343,-0.649961,5.965938,8.188555
1,9,92,1841,0.221766,0.017496,-0.977878,1.412539,3.903438,7.563555
1,9,93,1861,0.226649,0.005778,-0.985202,1.475039,4.153438,6.126055
1,9,94,1881,0.222742,0.000895,-0.993503,-0.712461,5.778438,3.876055
1,9,95,1901,0.220301,0.009196,-0.993991,-1.337461,6.215938,3.313555
1,9,96,1921,0.221277,0.012614,-0.992526,-3.212461,5.653438,4.001055
1,9,97,1941,0.222742,0.007731,-0.985690,-1.524961,3.590938,3.876055
1,9,98,1961,0.232020,0.007731,-0.970065,-1.399961,2.090938,1.438555
1,9,99,1981,0.231531,0.023356,-0.978366,-2.274961,0.965938,-0.373945
1,10,0,0,0.224207,-0.077230,-1.102878,-45.649960,9.653438,-22.561445
1,10,1,21,0.205164,-0.019125,-1.185886,-35.399960,36.153439,-36.998947
1,10,2,41,0.250086,0.032145,-1.198093,-20.337461,35.090939,-46.686447
1,10,3,61,0.301844,0.073649,-1.454440,29.912539,20.215939,-62.811447
1,10,4,81,0.253992,0.208414,-1.572116,111.287537,64.590935,-58.123947
1,10,5,101,0.307703,0.270914,-1.663425,153.850037,101.903435,-39.748947
1,10,6,121,0.283777,0.197184,-1.692233,110.975037,136.903442,-18.998945
1,10,7,141,0.285242,0.038004,-1.546726,34.537540,139.528442,-11.623945
1,10,8,161,0.296961,-0.015707,-1.422702,2.287539,138.715942,-9.936445
1,10,9,181,0.357020,-0.004476,-1.379245,22.412539,184.215942,-9.748945
1,10,10,201,0.381434,-0.006429,-1.410983,42.850040,194.028442,-8.248945
1,10,11,221,0.330652,-0.047933,-1.330905,25.162539,190.528442,-4.061445
1,10,12,241,0.314051,-0.074301,-1.125339,-8.962461,218.215942,0.376055
1,10,13,261,0.312586,-0.078695,-0.808444,-22.337461,225.403442,5.813555
1,10,14,281,0.342860,-0.116781,-0.641940,-19.587461,210.965942,5.063555
1,10,15,301,0.385340,-0.083578,-0.577487,-14.087461,221.215942,4.188555
1,10,16,321,0.425867,-0.024008,-0.503268,2.100039,230.278442,7.501055
1,10,17,341,0.469324,-0.040609,-0.444186,10.850039,225.215942,13.376055
1,10,18,361,0.538172,-0.028402,-0.287448,3.225039,222.903442,17.626055
1,10,19,381,0.607508,-0.005453,-0.101901,5.100039,212.465942,22.251055
1,10,20,401,0.670496,-0.013265,0.001614,19.287539,181.403442,24.126055
1,10,21,421,0.735926,-0.043539,-0.010593,18.662539,151.340942,23.376055
1,10,22,441,0.824305,-0.049886,-0.028171,9.975039,134.528442,23.626055
1,10,23,461,0.822352,-0.067465,-0.060886,7.912539,131.965942,24.063555
1,10,24,481,0.844324,-0.138754,-0.076511,0.912539,131.403442,20.501055
1,10,25,501,0.871668,-0.179281,-0.094577,-8.962461,135.403442,10.626055
1,10,26,521,0.863856,-0.165609,-0.066257,-22.149961,147.153442,2.813555
1,10,27,541,0.818445,-0.152914,0.000149,-35.649960,156.903442,-0.123945
1,10,28,561,0.777430,-0.174886,0.152005,-62.774960,175.215942,-4.248945
1,10,29,581,0.714930,-0.193929,0.385403,-79.337463,191.840942,-9.123945
1,10,30,601,0.642176,-0.182211,0.690091,-70.712463,199.528442,-10.248945
1,10,31,621,0.577235,-0.158285,1.103665,-44.087460,178.465942,-8.248945
1,10,32,641,0.554285,-0.131429,1.210110,-13.962461,120.903435,-0.436445
1,10,33,661,0.605555,-0.128988,1.293607,14.975039,34.590939,16.188555
1,10,34,681,0.738856,-0.162191,1.138333,20.725039,-17.721561,14.501055
1,10,35,701,0.797449,-0.146078,0.858548,22.412539,-31.659061,4.126055
1,10,36,721,0.851160,-0.112875,0.693997,14.600039,-39.471561,1.376055
1,10,37,741,0.911707,-0.078207,0.604153,1.537539,-53.409061,-2.748945
1,10,38,761,0.901453,-0.052816,0.558255,-7.837461,-65.471565,-7.123945
1,10,39,781,0.842371,-0.055746,0.589505,-4.462461,-74.784065,-7.936445
1,10,40,801,0.785242,-0.068929,0.614407,3.975039,-85.596565,-8.686445
1,10,41,821,0.741785,-0.050375,0.588528,7.412539,-95.784065,-6.373945
1,10,42,841,0.787684,-0.052328,0.548489,4.287539,-115.409065,0.313555
1,10,43,861,0.821863,-0.078207,0.427884,1.912539,-136.971558,7.251055
1,10,44,881,0.821375,-0.104574,0.256497,0.287539,-146.721558,13.688555
1,10,45,901,0.821863,-0.176840,0.142239,5.725039,-147.659058,14.313555
1,10,46,921,0.826258,-0.225668,0.035306,10.600039,-144.346558,8.563555
1,10,47,941,0.875574,-0.251058,-0.073093,4.037539,-149.846558,-1.311445
1,10,48,961,0.898524,-0.222738,-0.187351,-6.899961,-146.909058,-11.561445
1,10,49,981,0.885828,-0.155355,-0.226901,-11.774961,-128.034058,-14.623945
1,10,50,1001,0.887293,-0.136312,-0.187351,-14.837461,-121.846565,-15.936445
1,10,51,1021,0.880945,-0.147054,-0.295261,-24.024961,-136.346558,-17.311445
1,10,52,1041,0.883387,-0.138754,-0.397311,-31.587461,-138.346558,-21.123945
1,10,53,1061,0.865320,-0.110922,-0.454929,-30.212461,-125.909065,-24.748945
1,10,54,1081,0.855067,-0.082113,-0.433933,-21.337461,-108.659065,-26.498945
1,10,55,1101,0.836512,-0.057211,-0.421237,-20.587461,-111.221565,-26.436445
1,10,56,1121,0.835047,-0.020101,-0.511569,-30.399961,-121.596565,-24.873945
1,10,57,1141,0.802332,-0.000570,-0.559909,-41.649960,-113.971565,-22.873945
1,10,58,1161,0.793055,-0.003988,-0.565768,-36.024960,-109.034065,-20.811445
1,10,59,1181,0.772059,-0.011312,-0.611667,-25.524961,-109.721565,-20.561445
1,10,60,1201,0.762781,0.021891,-0.721530,-18.899961,-114.909065,-21.373945
1,10,61,1221,0.776453,0.065348,-0.784030,-16.712461,-108.596565,-18.873945
1,10,62,1241,0.746668,0.103922,-0.674167,-13.462461,-89.034065,-10.311445
1,10,63,1261,0.689539,0.098551,-0.592624,-9.024961,-94.221565,-0.436445
1,10,64,1281,0.677332,0.031656,-0.714206,-7.149961,-109.159065,2.126055
1,10,65,1301,0.690027,-0.014730,-0.879733,-14.587461,-119.596565,-6.311445
1,10,66,1321,0.658289,0.021891,-0.820163,-18.587461,-106.909065,-13.748945
1,10,67,1341,0.609949,0.059489,-0.673190,-4.149961,-91.596565,-10.623945
1,10,68,1361,0.568934,0.049723,-0.556979,7.600039,-104.221565,-4.561445
1,10,69,1381,0.487879,-0.006918,-0.716159,-2.712461,-143.284058,-9.748945
1,10,70,1401,0.470301,-0.075277,-1.021823,-28.774961,-167.096558,-28.123945
1,10,71,1421,0.457117,-0.000570,-1.088718,-42.149960,-152.971558,-46.498947
1,10,72,1441,0.413172,0.137614,-1.027683,-43.212460,-132.159058,-45.561447
1,10,73,1461,0.365809,0.232340,-0.950046,-27.337461,-117.721565,-31.936445
1,10,74,1481,0.315516,0.235758,-0.922214,-12.649961,-117.409065,-14.436445
1,10,75,1501,0.220301,0.134684,-1.142917,-2.087461,-118.784065,-4.436445
1,10,76,1521,0.233973,0.032633,-1.459323,-0.024961,-100.909065,-15.498945
1,10,77,1541,0.325281,0.119547,-1.451511,-9.712461,-84.221565,-22.561445
1,10,78,1561,0.288172,0.245524,-1.326022,-4.587461,-67.971565,-9.498945
1,10,79,1581,0.285731,0.274821,-1.165378,4.287539,-29.534061,13.438555
1,10,80,1601,0.302820,0.205973,-0.980808,19.975039,-24.409061,26.376055
1,10,81,1621,0.251063,0.049235,-0.847018,38.412540,-26.346561,34.126053
1,10,82,1641,0.354090,-0.153402,-0.946628,48.412540,-46.659061,4.688555
1,10,83,1661,0.278406,-0.070883,-1.701999,47.662540,-47.034061,-50.936447
1,10,84,1681,0.028406,0.182047,-1.557468,82.350037,51.465939,-4.061445
1,10,85,1701,0.123621,0.127360,-1.106784,31.600039,54.215939,20.188555
1,10,86,1721,0.224695,0.062906,-0.751804,-22.962461,13.153438,22.001055
1,10,87,1741,0.268641,-0.005941,-0.737155,-6.462461,-10.971562,12.001055
1,10,88,1761,0.243250,-0.030355,-0.912448,14.350039,-17.596561,2.063555
1,10,89,1781,0.257899,-0.004476,-1.095554,15.162539,-2.909062,-1.998945
1,10,90,1801,0.242274,0.017008,-1.126804,11.412539,7.028438,2.188555
1,10,91,1821,0.239832,0.015055,-1.016452,1.412539,12.465938,8.501055
1,10,92,1841,0.244227,-0.008871,-0.931979,-10.337461,5.465938,7.001055
1,10,93,1861,0.249109,-0.003988,-0.962253,-10.649961,0.903438,2.251055
1,10,94,1881,0.253504,0.005778,-0.997409,-6.524961,4.653438,-0.123945
1,10,95,1901,0.244715,0.027262,-0.991550,-2.587461,9.528438,-0.561445
1,10,96,1921,0.239344,0.043375,-0.978366,-2.649961,6.528438,-0.186445
1,10,97,1941,0.245692,0.049235,-0.975436,-9.587461,1.465938,0.563555
1,10,98,1961,0.246668,0.045817,-0.980808,-6.712461,-1.409062,1.876055
1,10,99,1981,0.246668,0.040934,-0.993015,-1.712461,-0.596562,2.563555
1,11,0,0,0.190516,-0.048910,-1.060886,-43.337460,-12.721562,1.688555
1,11,1,21,0.180750,-0.047933,-1.114597,-61.649960,-7.096562,-10.311445
1,11,2,41,0.183192,0.016031,-1.107761,-70.524963,3.403438,-23.686445
1,11,3,61,0.201746,0.069254,-1.036960,-41.837460,10.715938,-29.998945
1,11,4,81,0.266688,0.080973,-1.396823,11.850039,17.778439,-53.811447
1,11,5,101,0.223719,0.156168,-1.729343,50.350040,57.278439,-56.623947
1,11,6,121,0.256922,0.316813,-1.840183,88.912537,97.653435,-41.811447
1,11,7,141,0.287195,0.329020,-1.840183,118.287537,158.340942,-17.436445
1,11,8,161,0.275477,0.220621,-1.628268,62.100040,189.090942,-2.123945
1,11,9,181,0.295496,0.085367,-1.363620,-4.337461,173.965942,8.563555
1,11,10,201,0.260828,-0.051840,-1.219089,-27.649961,173.778442,5.876055
1,11,11,221,0.356043,-0.110922,-1.084323,-12.087461,186.778442,-4.748945
1,11,12,241,0.337488,-0.030844,-1.004245,-3.149961,159.653442,-17.873945
1,11,13,261,0.278406,0.091715,-0.903659,-13.274961,166.278442,-11.748945
1,11,14,281,0.336024,0.096598,-0.780124,-21.212461,177.278442,3.376055
1,11,15,301,0.403406,0.011149,-0.720065,-23.274961,172.965942,7.501055
1,11,16,321,0.451258,-0.015707,-0.689792,-28.212461,167.715942,5.376055
1,11,17,341,0.500574,0.026774,-0.628757,-32.837460,175.028442,-0.748945
1,11,18,361,0.577235,0.077555,-0.603854,-22.774961,178.465942,5.126055
1,11,19,381,0.631922,0.078531,-0.586765,-15.087461,189.653442,11.001055
1,11,20,401,0.674891,0.043864,-0.580905,-20.587461,198.715942,11.563555
1,11,21,421,0.722254,0.014567,-0.527683,-26.337461,213.840942,7.563555
1,11,22,441,0.729090,0.026285,-0.468112,-34.587460,225.278442,3.126055
1,11,23,461,0.754969,0.042399,-0.229343,-38.337460,247.340942,5.126055
1,11,24,481,0.711024,0.107828,0.013333,-29.962461,245.590942,10.313555
1,11,25,501,0.735926,0.105387,0.077786,-19.649961,227.153442,17.876055
1,11,26,521,0.745692,0.110758,0.077786,-26.712461,200.028442,22.001055
1,11,27,541,0.783777,0.080973,0.117825,-40.899960,187.153442,24.188555
1,11,28,561,0.770106,0.050211,0.232571,-41.524960,173.528442,25.688555
1,11,29,581,0.771570,0.016031,0.330228,-35.212460,146.903442,27.938555
1,11,30,601,0.774012,0.004313,0.358548,-25.399961,112.528435,30.751055
1,11,31,621,0.815027,-0.007894,0.340970,-25.774961,83.153435,35.251053
1,11,32,641,0.874598,-0.072347,0.351712,-37.212460,72.028435,37.001053
1,11,33,661,0.905360,-0.154867,0.345853,-44.649960,74.528435,30.376055
1,11,34,681,0.821375,-0.197836,0.459622,-36.587460,95.778435,23.313555
1,11,35,701,0.697840,-0.186605,0.633939,-18.524961,105.903435,20.876055
1,11,36,721,0.641199,-0.168051,0.774564,-6.399961,90.590935,28.126055
1,11,37,741,0.640711,-0.176840,0.896146,-6.087461,72.028435,32.938553
1,11,38,761,0.681238,-0.237386,0.996732,-23.337461,52.403439,25.626055
1,11,39,781,0.771082,-0.268636,1.132962,-28.837461,21.528439,6.063555
1,11,40,801,0.717860,-0.190023,1.039700,-8.587461,-19.034061,-13.623945
1,11,41,821,0.772059,-0.128011,0.846829,-4.274961,-53.721561,-17.248945
1,11,42,841,0.837977,-0.111410,0.704739,-8.837461,-81.784065,-21.248945
1,11,43,861,0.848231,-0.082113,0.506985,-19.274961,-97.034065,-24.436445
1,11,44,881,0.850184,-0.061605,0.422513,-23.837461,-88.034065,-26.123945
1,11,45,901,0.805750,-0.049398,0.470853,-10.837461,-70.346565,-23.186445
1,11,46,921,0.778895,-0.043539,0.546048,3.912539,-67.721565,-14.123945
1,11,47,941,0.839442,-0.067953,0.563138,2.850039,-85.221565,-9.373945
1,11,48,961,0.872645,-0.079183,0.452298,-8.274961,-107.159065,-13.436445
1,11,49,981,0.828211,-0.071859,0.318509,-15.024961,-113.534065,-17.998945
1,11,50,1001,0.795985,-0.067953,0.313626,-7.337461,-104.846565,-17.936445
1,11,51,1021,0.758387,-0.068929,0.375638,20.037539,-101.846565,-11.623945
1,11,52,1041,0.781824,-0.085043,0.370755,38.850040,-117.659065,-5.748945
1,11,53,1061,0.802820,-0.094808,0.265774,43.100040,-142.596558,-4.061445
1,11,54,1081,0.819422,-0.112386,0.124661,41.162540,-161.534058,-7.248945
1,11,55,1101,0.820399,-0.128011,0.002103,31.287539,-172.034058,-17.498945
1,11,56,1121,0.809168,-0.126547,-0.069186,16.037539,-178.409058,-31.436445
1,11,57,1141,0.780848,-0.119222,-0.104343,15.100039,-196.409058,-47.623947
1,11,58,1161,0.746180,-0.089437,-0.230808,21.475039,-217.534058,-59.748947
1,11,59,1181,0.699305,0.017008,-0.433444,36.100040,-208.971558,-59.498947
1,11,60,1201,0.677820,0.117106,-0.570163,52.412540,-180.721558,-38.811447
1,11,61,1221,0.681727,0.115641,-0.623874,44.850040,-181.159058,-24.498945
1,11,62,1241,0.672449,0.079508,-0.769870,13.162539,-208.159058,-28.936445
1,11,63,1261,0.668543,0.081949,-0.879245,-9.337461,-201.409058,-27.811445
1,11,64,1281,0.673426,0.051188,-0.860690,-4.649961,-159.721558,-28.748945
1,11,65,1301,0.631434,0.041910,-0.757175,12.662539,-135.284058,-28.186445
1,11,66,1321,0.563563,0.074625,-0.783542,10.287539,-164.784058,-25.686445
1,11,67,1341,0.542567,0.095621,-0.940768,-4.962461,-176.659058,-26.248945
1,11,68,1361,0.537195,0.072184,-1.079929,-11.462461,-163.284058,-31.123945
1,11,69,1381,0.550867,0.070719,-1.084811,-8.212461,-128.846558,-30.936445
1,11,70,1401,0.467371,0.091227,-1.003757,1.350039,-104.284065,-28.311445
1,11,71,1421,0.436121,0.145426,-1.013522,0.537539,-102.909065,-22.623945
1,11,72,1441,0.411219,0.202555,-1.084811,-6.212461,-105.659065,-15.561445
1,11,73,1461,0.428309,0.149821,-1.158542,-0.962461,-101.784065,-7.686445
1,11,74,1481,0.441004,0.079996,-1.125339,6.225039,-73.721565,-10.436445
1,11,75,1501,0.365809,0.114176,-1.058444,14.787539,-62.846561,-16.686445
1,11,76,1521,0.328211,0.174723,-1.074558,16.600039,-70.846565,-11.561445
1,11,77,1541,0.306727,0.162028,-1.122409,16.600039,-84.034065,-3.686445
1,11,78,1561,0.342860,0.104410,-1.191745,12.037539,-69.971565,-0.373945
1,11,79,1581,0.373133,0.110758,-1.199558,1.412539,-60.784061,-5.248945
1,11,80,1601,0.347742,0.163492,-1.146823,-8.712461,-52.034061,-5.123945
1,11,81,1621,0.329676,0.153727,-1.102878,-3.899961,-53.096561,-5.311445
1,11,82,1641,0.486414,0.094645,-1.689792,4.475039,-74.846565,-42.811447
1,11,83,1661,0.157801,0.305094,-1.580905,73.725037,26.715939,14.001055
1,11,84,1681,0.280848,0.136149,-0.923679,74.537537,65.465935,40.876053
1,11,85,1701,0.261317,0.062906,-0.604343,49.475040,8.965938,36.313553
1,11,86,1721,0.265711,-0.017172,-0.639011,37.537540,-34.909061,23.188555
1,11,87,1741,0.301844,-0.053304,-0.910007,19.850039,-61.096561,5.876055
1,11,88,1761,0.311610,-0.054281,-1.150729,26.912539,-36.346561,-9.248945
1,11,89,1781,0.264735,-0.031332,-1.198581,37.662540,1.215938,-8.873945
1,11,90,1801,0.244715,0.019938,-1.078952,32.912540,15.403438,7.063555
1,11,91,1821,0.250086,0.006266,-0.943698,23.225039,12.028438,15.376055
1,11,92,1841,0.272059,-0.066488,-0.919772,14.162539,-3.909062,14.813555
1,11,93,1861,0.281824,-0.112386,-0.984226,7.412539,-7.159062,5.751055
1,11,94,1881,0.268641,-0.092367,-1.004245,2.537539,1.340938,0.063555
1,11,95,1901,0.253992,-0.062094,-1.010104,-4.024961,4.215938,-0.998945
1,11,96,1921,0.256922,-0.058187,-0.984226,-11.899961,3.653438,-0.686445
1,11,97,1941,0.263758,-0.041586,-0.955417,-11.712461,0.403438,-3.186445
1,11,98,1961,0.266199,-0.007894,-0.964694,-8.024961,-3.096562,-3.498945
1,11,99,1981,0.263758,0.004801,-0.990573,-4.337461,-4.409062,-3.248945
1,12,0,0,0.176844,0.037028,-1.093112,-5.774961,6.528438,-14.436445
1,12,1,21,0.155359,0.033121,-1.149753,12.225039,15.028438,-13.248945
1,12,2,41,0.236414,-0.051351,-1.370456,52.912540,7.153438,-24.123945
1,12,3,61,0.307703,-0.000570,-1.821628,81.912537,68.778435,-39.498947
1,12,4,81,0.321863,0.143473,-1.819186,46.787540,112.715935,-24.061445
1,12,5,101,0.309656,0.186442,-1.586765,28.787539,119.340935,1.438555
1,12,6,121,0.371180,-0.005941,-1.528171,17.975039,135.903442,9.563555
1,12,7,141,0.357996,-0.091879,-1.418796,-8.462461,162.028442,5.188555
1,12,8,161,0.325770,-0.088461,-1.258640,-12.337461,190.965942,1.688555
1,12,9,181,0.386805,-0.087972,-1.112643,-4.024961,197.778442,-1.436445
1,12,10,201,0.383387,-0.142660,-1.104831,-6.962461,173.840942,-7.561445
1,12,11,221,0.378016,-0.101644,-1.092136,-33.399960,177.778442,-16.248945
1,12,12,241,0.367762,-0.005941,-0.922702,-52.649960,207.778442,-9.748945
1,12,13,261,0.404871,-0.012777,-0.766940,-37.399960,213.090942,3.063555
1,12,14,281,0.449305,-0.034750,-0.740573,-14.899961,225.028442,9.626055
1,12,15,301,0.506922,-0.084554,-0.729343,-12.149961,235.153442,11.376055
1,12,16,321,0.568934,-0.099691,-0.668796,-21.899961,238.090942,3.438555
1,12,17,341,0.657313,-0.038168,-0.583347,-28.712461,248.403442,-2.123945
1,12,18,361,0.661219,-0.014242,-0.414890,-21.462461,243.965942,3.876055
1,12,19,381,0.697840,-0.023519,-0.364597,-22.587461,223.653442,4.688555
1,12,20,401,0.722742,-0.031820,-0.298190,-29.337461,214.715942,3.251055
1,12,21,421,0.720301,-0.002035,-0.202487,-29.337461,211.403442,1.876055
1,12,22,441,0.686121,0.030680,-0.081393,-23.399961,215.465942,7.063555
1,12,23,461,0.648035,0.045817,0.154935,-15.024961,212.465942,12.063555
1,12,24,481,0.628992,0.034586,0.313138,-3.837461,189.278442,17.501055
1,12,25,501,0.635340,0.016520,0.458646,5.350039,168.028442,20.063555
1,12,26,521,0.624598,0.028727,0.560696,5.850039,147.528442,23.063555
1,12,27,541,0.669031,0.044352,0.678860,-5.712461,122.528435,26.126055
1,12,28,561,0.663172,-0.009359,0.759427,-14.712461,97.403435,26.188555
1,12,29,581,0.705164,-0.103109,0.795560,-21.462461,83.965935,18.813555
1,12,30,601,0.692469,-0.128500,0.854153,-21.899961,65.778435,11.938555
1,12,31,621,0.720301,-0.150472,0.883939,-18.587461,45.278439,7.938555
1,12,32,641,0.754481,-0.143148,0.874173,-6.587461,24.528439,2.938555
1,12,33,661,0.763270,-0.121664,0.786282,1.537539,4.215938,0.938555
1,12,34,681,0.777430,-0.108969,0.736966,0.787539,-8.846562,-1.248945
1,12,35,701,0.765711,-0.067465,0.740384,2.662539,-18.471561,-4.248945
1,12,36,721,0.776942,-0.034750,0.744290,7.975039,-34.409061,-2.436445
1,12,37,741,0.818445,-0.035726,0.662259,7.100039,-58.909061,-0.811445
1,12,38,761,0.840418,-0.046957,0.535306,0.350039,-75.409065,-1.873945
1,12,39,781,0.837000,-0.053304,0.450833,-5.212461,-81.221565,-3.373945
1,12,40,801,0.810145,-0.053304,0.460110,-10.149961,-80.284065,-4.873945
1,12,41,821,0.781824,-0.046469,0.516751,-4.024961,-85.534065,-2.936445
1,12,42,841,0.790125,-0.050863,0.491849,3.787539,-102.659065,2.313555
1,12,43,861,0.810633,-0.068929,0.410794,7.912539,-124.096565,5.376055
1,12,44,881,0.820887,-0.119711,0.254544,9.850039,-139.971558,3.813555
1,12,45,901,0.837000,-0.138265,0.113431,6.350039,-133.471558,-3.373945
1,12,46,921,0.871668,-0.138754,0.056302,4.225039,-131.846558,-11.686445
1,12,47,941,0.891199,-0.114340,0.000149,-9.337461,-145.534058,-20.373945
1,12,48,961,0.911707,-0.107015,-0.124851,-20.774961,-161.346558,-29.748945
1,12,49,981,0.891199,-0.073812,-0.193210,-19.774961,-155.471558,-39.248947
1,12,50,1001,0.849207,0.018961,-0.277683,-12.212461,-139.659058,-38.998947
1,12,51,1021,0.843348,0.097086,-0.296237,-15.899961,-131.971558,-29.248945
1,12,52,1041,0.835535,0.136149,-0.317233,-21.774961,-139.409058,-16.311445
1,12,53,1061,0.824793,0.094645,-0.402683,-32.774960,-144.971558,-9.123945
1,12,54,1081,0.831629,0.019449,-0.451022,-29.024961,-140.471558,-11.123945
1,12,55,1101,0.805750,0.009684,-0.459811,-11.774961,-135.346558,-15.561445
1,12,56,1121,0.804774,0.023844,-0.555026,-4.399961,-141.346558,-18.686445
1,12,57,1141,0.795985,0.051676,-0.689304,-13.462461,-141.346558,-22.936445
1,12,58,1161,0.810145,0.073649,-0.760104,-30.837461,-143.159058,-28.686445
1,12,59,1181,0.784266,0.077555,-0.841647,-50.087460,-144.534058,-36.936447
1,12,60,1201,0.761805,0.122965,-0.814792,-42.087460,-129.221558,-38.123947
1,12,61,1221,0.722742,0.154215,-0.757663,-11.149961,-113.159065,-33.623947
1,12,62,1241,0.686610,0.152750,-0.834811,12.287539,-124.659065,-30.873945
1,12,63,1261,0.684168,0.181559,-0.934909,13.037539,-133.096558,-28.873945
1,12,64,1281,0.663172,0.208414,-0.975925,14.975039,-122.784065,-23.311445
1,12,65,1301,0.628992,0.172282,-0.969089,25.850039,-100.659065,-14.498945
1,12,66,1321,0.601649,0.112711,-0.937839,37.850040,-78.659065,-8.998945
1,12,67,1341,0.571375,0.078043,-0.899265,32.162540,-74.659065,-11.311445
1,12,68,1361,0.542567,0.113199,-0.907077,11.537539,-86.909065,-17.373945
1,12,69,1381,0.522059,0.158610,-0.924167,-0.524961,-94.409065,-16.936445
1,12,70,1401,0.501551,0.155192,-0.913425,4.600039,-86.846565,-9.561445
1,12,71,1421,0.463465,0.117594,-0.910007,12.475039,-78.221565,-5.873945
1,12,72,1441,0.441004,0.077555,-0.966159,15.162539,-79.534065,-8.748945
1,12,73,1461,0.418543,0.106852,-1.000339,8.225039,-84.034065,-10.998945
1,12,74,1481,0.413172,0.148356,-1.033542,-1.212461,-82.909065,-9.311445
1,12,75,1501,0.412195,0.162516,-1.008640,-7.024961,-71.346565,-2.748945
1,12,76,1521,0.367274,0.146891,-0.951999,-3.712461,-66.221565,3.063555
1,12,77,1541,0.318934,0.113688,-0.990085,0.350039,-69.971565,1.688555
1,12,78,1561,0.298426,0.121500,-1.002780,-0.962461,-66.346565,1.063555
1,12,79,1581,0.288660,0.152750,-1.018405,0.850039,-70.721565,2.438555
1,12,80,1601,0.282313,0.158121,-1.015476,4.162539,-65.909065,6.376055
1,12,81,1621,0.273524,0.145426,-0.968601,9.662539,-64.159065,10.813555
1,12,82,1641,0.483973,0.043375,-1.535007,0.975039,-90.846565,-30.623945
1,12,83,1661,0.148524,0.244059,-1.804538,65.412537,-6.596562,2.626055
1,12,84,1681,0.169520,0.133219,-1.218601,101.725037,81.090935,44.313553
1,12,85,1701,0.231531,-0.017660,-0.729343,22.350039,41.528439,33.376053
1,12,86,1721,0.253504,-0.047445,-0.666354,-7.962461,-21.159061,11.688555
1,12,87,1741,0.267664,-0.041586,-0.923679,-12.962461,-37.346561,-8.623945
1,12,88,1761,0.247156,0.044352,-1.148776,-7.962461,-20.221561,-12.936445
1,12,89,1781,0.230555,0.065836,-1.146335,2.037539,4.903438,-3.436445
1,12,90,1801,0.241297,0.059977,-0.985690,-1.774961,9.778438,1.126055
1,12,91,1821,0.245692,0.061930,-0.879733,-5.774961,-0.346562,0.688555
1,12,92,1841,0.253504,0.060953,-0.947604,-1.837461,-11.409062,-1.873945
1,12,93,1861,0.246180,0.085367,-1.017917,-0.212461,-3.409062,-1.248945
1,12,94,1881,0.235438,0.083903,-0.991061,3.725039,1.590938,1.813555
1,12,95,1901,0.234461,0.061930,-0.983737,6.037539,0.090938,2.188555
1,12,96,1921,0.231531,0.053141,-0.992526,3.225039,-2.284062,1.063555
1,12,97,1941,0.238367,0.052653,-0.992526,1.850039,-3.596562,1.563555
1,12,98,1961,0.238856,0.047770,-0.991550,2.162539,-3.159062,2.126055
1,12,99,1981,0.241297,0.044352,-0.991061,0.912539,-3.346562,2.688555
1,13,0,0,0.201258,-0.020101,-1.099460,-35.399960,22.653439,-15.873945
1,13,1,21,0.208094,0.033121,-1.163913,-38.774960,36.028439,-21.873945
1,13,2,41,0.258387,0.101969,-1.172702,-29.399961,49.090939,-25.373945
1,13,3,61,0.307215,0.144938,-1.410495,6.350039,35.153439,-31.123945
1,13,4,81,0.312098,0.145914,-1.666354,22.975039,69.153435,-27.623945
1,13,5,101,0.345301,0.212809,-1.737643,1.037539,97.653435,-22.498945
1,13,6,121,0.370203,0.297770,-1.718601,4.287539,140.590942,-3.623945
1,13,7,141,0.330652,0.255289,-1.438815,8.600039,174.778442,15.563555
1,13,8,161,0.307215,0.145426,-1.276218,3.537539,158.090942,21.938555
1,13,9,181,0.382410,0.087321,-1.183444,-4.149961,169.278442,19.563555
1,13,10,201,0.419520,0.108317,-1.138522,14.537539,179.278442,13.688555
1,13,11,221,0.376063,0.078043,-1.171237,7.600039,161.403442,10.813555
1,13,12,241,0.396082,0.096598,-1.078952,-28.024961,183.465942,5.251055
1,13,13,261,0.391688,0.200602,-0.854831,-35.399960,197.653442,7.563555
1,13,14,281,0.397059,0.203532,-0.743503,-20.962461,203.215942,14.063555
1,13,15,301,0.424402,0.191324,-0.710300,-13.899961,227.153442,21.938555
1,13,16,321,0.479090,0.149821,-0.626804,-6.962461,220.653442,31.001055
1,13,17,341,0.514735,0.086832,-0.567722,-0.087461,232.278442,36.563553
1,13,18,361,0.576258,0.079996,-0.418796,-7.899961,238.090942,41.001053
1,13,19,381,0.592371,0.053141,-0.264011,-9.149961,222.528442,47.751053
1,13,20,401,0.659266,-0.018148,-0.241550,-12.899961,209.465942,47.626053
1,13,21,421,0.733973,-0.066488,-0.250827,-23.649961,204.028442,41.938553
1,13,22,441,0.745692,-0.088461,-0.180515,-31.399961,208.778442,37.313553
1,13,23,461,0.756922,-0.106039,-0.017917,-21.837461,216.590942,35.251053
1,13,24,481,0.747645,-0.105062,0.141751,-9.962461,210.028442,32.063553
1,13,25,501,0.732020,-0.122152,0.241849,-3.274961,197.465942,26.376055
1,13,26,521,0.755945,-0.115804,0.321927,-13.587461,182.215942,23.626055
1,13,27,541,0.732996,-0.102621,0.421536,-19.337461,159.778442,18.688555
1,13,28,561,0.749598,-0.147543,0.446927,-25.149961,138.215942,16.626055
1,13,29,581,0.767176,-0.180258,0.519192,-23.712461,125.215935,13.376055
1,13,30,601,0.732508,-0.184164,0.593899,-22.337461,110.528435,13.251055
1,13,31,621,0.717860,-0.211019,0.670071,-26.024961,95.340935,11.563555
1,13,32,641,0.713953,-0.230551,0.735013,-27.399961,83.778435,5.376055
1,13,33,661,0.695887,-0.256918,0.882474,-32.962460,74.028435,-5.123945
1,13,34,681,0.643641,-0.237386,1.036282,-37.399960,52.590939,-18.061445
1,13,35,701,0.624598,-0.178793,1.058255,-26.712461,15.840938,-26.748945
1,13,36,721,0.615320,-0.090414,1.018216,-9.149961,-12.784062,-28.186445
1,13,37,741,0.645594,-0.005453,0.965970,14.975039,-32.784061,-19.436445
1,13,38,761,0.731043,0.019449,0.858548,26.662539,-59.659061,-7.498945
1,13,39,781,0.791102,0.019938,0.644192,24.725039,-86.971565,1.688555
1,13,40,801,0.820399,-0.014730,0.465482,11.725039,-93.159065,5.813555
1,13,41,821,0.830164,-0.045980,0.442044,9.100039,-77.284065,6.876055
1,13,42,841,0.795008,-0.052328,0.512845,17.287539,-68.846565,8.313555
1,13,43,861,0.775477,-0.048422,0.566067,25.850039,-77.159065,13.126055
1,13,44,881,0.770106,-0.063070,0.560208,30.350039,-93.971565,19.126055
1,13,45,901,0.774988,-0.104574,0.506497,25.912539,-112.284065,20.688555
1,13,46,921,0.766199,-0.143636,0.406399,19.725039,-125.971565,17.813555
1,13,47,941,0.792078,-0.159261,0.325833,16.850039,-139.346558,14.126055
1,13,48,961,0.826746,-0.173422,0.199857,11.850039,-151.096558,8.751055
1,13,49,981,0.854090,-0.189047,0.100247,7.037539,-155.971558,-0.998945
1,13,50,1001,0.884363,-0.155355,0.030911,-1.149961,-164.409058,-13.311445
1,13,51,1021,0.890223,-0.132894,-0.136081,-15.337461,-188.971558,-26.561445
1,13,52,1041,0.886805,-0.081136,-0.318698,-28.587461,-196.471558,-39.123947
1,13,53,1061,0.870692,-0.019125,-0.444675,-30.024961,-175.909058,-41.998947
1,13,54,1081,0.849207,0.053629,-0.373386,-11.462461,-141.534058,-33.998947
1,13,55,1101,0.836024,0.086344,-0.365085,6.225039,-136.221558,-18.436445
1,13,56,1121,0.827723,0.054117,-0.474460,7.162539,-151.221558,-6.686445
1,13,57,1141,0.854578,-0.001058,-0.631686,-13.962461,-150.596558,-5.998945
1,13,58,1161,0.847254,-0.023031,-0.609226,-19.337461,-129.159058,-7.248945
1,13,59,1181,0.810145,-0.042074,-0.598972,-2.212461,-129.909058,-6.311445
1,13,60,1201,0.841395,-0.043539,-0.700046,13.537539,-137.659058,-8.186445
1,13,61,1221,0.840906,-0.019613,-0.783542,16.475039,-125.784065,-11.436445
1,13,62,1241,0.804285,-0.001058,-0.777194,2.662539,-106.284065,-10.623945
1,13,63,1261,0.754969,-0.039144,-0.658054,-9.899961,-88.909065,-10.686445
1,13,64,1281,0.698328,-0.066000,-0.585300,-10.212461,-106.909065,-16.061445
1,13,65,1301,0.677820,-0.068929,-0.714694,-1.087461,-135.534058,-23.373945
1,13,66,1321,0.667078,-0.015707,-0.793796,4.037539,-138.159058,-28.998945
1,13,67,1341,0.611414,0.046793,-0.793308,12.537539,-124.909065,-23.748945
1,13,68,1361,0.588953,0.023844,-0.731296,31.912539,-101.221565,-12.998945
1,13,69,1381,0.505945,-0.008871,-0.733249,29.162539,-118.096565,-13.373945
1,13,70,1401,0.491297,-0.017660,-0.925143,20.350039,-142.346558,-16.248945
1,13,71,1421,0.533289,-0.001058,-1.090183,11.725039,-133.596558,-24.061445
1,13,72,1441,0.503504,0.109781,-1.067722,17.537539,-104.409065,-18.748945
1,13,73,1461,0.431727,0.120035,-0.946628,40.037540,-74.971565,0.376055
1,13,74,1481,0.360926,0.046305,-0.907565,53.600040,-83.721565,9.001055
1,13,75,1501,0.344324,-0.018148,-1.104343,40.350040,-103.159065,8.813555
1,13,76,1521,0.406336,-0.052328,-1.222018,19.100039,-93.284065,2.188555
1,13,77,1541,0.395594,-0.034750,-1.160495,0.100039,-75.471565,-4.561445
1,13,78,1561,0.317469,0.002360,-1.058444,-6.462461,-73.846565,-5.686445
1,13,79,1581,0.255945,0.030680,-1.079440,-17.587461,-83.284065,-0.998945
1,13,80,1601,0.279383,0.022379,-1.165866,-17.837461,-82.221565,4.688555
1,13,81,1621,0.280360,-0.004476,-1.145358,-11.587461,-65.659065,6.813555
1,13,82,1641,0.249109,0.003824,-1.038913,-1.962461,-54.721561,9.188555
1,13,83,1661,0.239344,-0.002035,-0.980319,3.350039,-52.346561,10.938555
1,13,84,1681,0.304774,-0.089926,-1.101901,-9.587461,-72.284065,-8.811445
1,13,85,1701,0.262293,-0.109457,-1.709323,-14.024961,-86.534065,-35.123947
1,13,86,1721,0.138270,0.031656,-1.441257,56.412540,28.590939,10.251055
1,13,87,1741,0.201746,-0.053304,-0.938815,27.225039,48.590939,19.376055
1,13,88,1761,0.207117,-0.039144,-0.705417,15.350039,13.903438,14.376055
1,13,89,1781,0.232508,-0.114828,-0.794284,-2.962461,-21.034061,-2.311445
1,13,90,1801,0.215418,-0.084066,-0.994479,-9.149961,-26.596561,-11.061445
1,13,91,1821,0.180262,-0.043539,-1.106784,5.287539,-13.534062,-15.248945
1,13,92,1841,0.176356,-0.018148,-1.107761,17.162539,0.715938,-6.936445
1,13,93,1861,0.180262,-0.017172,-1.012546,11.600039,4.965938,1.688555
1,13,94,1881,0.195887,-0.036215,-0.942233,4.162539,-1.409062,5.063555
1,13,95,1901,0.200770,-0.064047,-0.955417,0.787539,-7.159062,3.313555
1,13,96,1921,0.204188,-0.078207,-0.993015,1.350039,-6.159062,0.876055
1,13,97,1941,0.193934,-0.078695,-0.997897,1.475039,-2.721562,-1.498945
1,13,98,1961,0.187098,-0.055746,-1.005222,0.975039,-1.159062,-2.123945
1,13,99,1981,0.184168,-0.043539,-0.997897,-1.087461,-1.346562,0.126055
1,14,0,0,0.156824,0.079508,-0.934421,-83.149963,-21.159061,-2.561445
1,14,1,21,0.140223,0.109781,-1.067233,-59.274960,-29.596561,-4.748945
1,14,2,41,0.113367,0.094645,-1.343601,-37.774960,-13.034062,-9.873945
1,14,3,61,0.128016,0.186930,-1.591647,-43.524960,26.590939,-14.248945
1,14,4,81,0.111414,0.304606,-1.639499,-32.774960,62.965939,-7.123945
1,14,5,101,0.136805,0.326578,-1.632663,-8.274961,99.153435,2.938555
1,14,6,121,0.182703,0.273844,-1.592136,0.475039,125.715935,8.126055
1,14,7,141,0.173914,0.260660,-1.513522,-8.962461,159.590942,10.188555
1,14,8,161,0.248133,0.222086,-1.441745,2.037539,179.903442,8.938555
1,14,9,181,0.230067,0.254801,-1.320651,15.037539,208.465942,12.501055
1,14,10,201,0.241785,0.191324,-1.221530,30.225039,184.840942,16.063555
1,14,11,221,0.244227,0.150309,-1.152683,11.912539,181.715942,19.688555
1,14,12,241,0.259852,0.139567,-0.976901,13.100039,210.590942,25.688555
1,14,13,261,0.268152,0.075602,-0.802097,24.537539,223.465942,26.626055
1,14,14,281,0.344324,0.047770,-0.689792,24.225039,222.403442,23.813555
1,14,15,301,0.399012,0.068278,-0.561374,33.600040,230.965942,25.126055
1,14,16,321,0.430262,0.055582,-0.550632,40.100040,221.403442,24.876055
1,14,17,341,0.515223,0.007731,-0.625339,37.037540,226.028442,23.626055
1,14,18,361,0.595301,0.011637,-0.545749,21.100039,248.028442,21.188555
1,14,19,381,0.633875,0.068766,-0.360202,-19.337461,233.090942,21.188555
1,14,20,401,0.716883,0.035074,-0.285983,-48.024960,203.340942,26.876055
1,14,21,421,0.797938,-0.020590,-0.255710,-57.024960,190.090942,26.126055
1,14,22,441,0.794031,0.012125,-0.256198,-56.024960,194.340942,21.688555
1,14,23,461,0.781336,0.025797,-0.239597,-48.899960,202.215942,28.126055
1,14,24,481,0.770594,-0.018148,-0.142917,-40.212460,212.028442,31.126055
1,14,25,501,0.736414,-0.017660,0.025540,-36.837460,213.153442,32.438553
1,14,26,521,0.702235,-0.042562,0.153958,-38.212460,204.215942,32.563553
1,14,27,541,0.655360,-0.039144,0.250638,-38.587460,202.465942,37.876053
1,14,28,561,0.545496,-0.071371,0.483060,-22.399961,216.778442,47.501053
1,14,29,581,0.452723,-0.123129,0.860501,1.912539,225.153442,55.876053
1,14,30,601,0.477137,-0.211508,1.143216,15.662539,176.090942,53.188553
1,14,31,621,0.487391,-0.258383,1.200345,23.975039,108.028435,44.126053
1,14,32,641,0.560145,-0.320883,1.130521,20.537539,59.215939,39.501053
1,14,33,661,0.684168,-0.383871,1.062649,-8.024961,24.903439,29.188555
1,14,34,681,0.744715,-0.365804,0.948880,-31.274961,3.715938,4.563555
1,14,35,701,0.726160,-0.278402,0.825833,-17.774961,-18.284061,-5.561445
1,14,36,721,0.747156,-0.214437,0.767728,-0.649961,-20.846561,-6.686445
1,14,37,741,0.791102,-0.166586,0.704739,2.787539,-39.034061,-5.248945
1,14,38,761,0.831629,-0.136312,0.600247,-2.024961,-59.846561,-3.373945
1,14,39,781,0.808680,-0.129965,0.559232,-0.587461,-63.596561,-1.811445
1,14,40,801,0.759363,-0.141683,0.632474,8.975039,-63.409061,-1.373945
1,14,41,821,0.698328,-0.147054,0.726712,20.975039,-74.034065,0.126055
1,14,42,841,0.643152,-0.141683,0.810696,24.162539,-94.096565,1.563555
1,14,43,861,0.597742,-0.135824,0.831204,27.725039,-121.409065,6.938555
1,14,44,881,0.622645,-0.193929,0.703763,33.600040,-159.971558,12.563555
1,14,45,901,0.647547,-0.248129,0.507962,38.100040,-188.096558,11.688555
1,14,46,921,0.661219,-0.282308,0.290677,36.600040,-201.221558,3.876055
1,14,47,941,0.703211,-0.308187,0.169583,28.662539,-200.284058,-10.686445
1,14,48,961,0.721277,-0.328695,0.089017,10.662539,-211.971558,-29.623945
1,14,49,981,0.734949,-0.273031,-0.080417,-11.212461,-232.159058,-49.998947
1,14,50,1001,0.729578,-0.175863,-0.287448,-37.649960,-238.846558,-63.311447
1,14,51,1021,0.712488,-0.075277,-0.459323,-44.087460,-224.034058,-67.498947
1,14,52,1041,0.736414,-0.004476,-0.590671,-48.149960,-207.909058,-66.686447
1,14,53,1061,0.742274,0.084879,-0.672702,-51.899960,-193.284058,-64.561447
1,14,54,1081,0.752527,0.162516,-0.814304,-49.962460,-185.596558,-60.811447
1,14,55,1101,0.784266,0.209879,-0.906589,-39.837460,-163.846558,-55.623947
1,14,56,1121,0.765223,0.273844,-0.870456,-27.649961,-141.096558,-42.561447
1,14,57,1141,0.734949,0.297282,-0.771823,-18.212461,-124.534065,-22.623945
1,14,58,1161,0.693445,0.256266,-0.650241,6.975039,-117.659065,-3.748945
1,14,59,1181,0.671961,0.153239,-0.743015,22.350039,-130.534058,3.626055
1,14,60,1201,0.688074,0.078043,-0.932956,31.912539,-131.471558,-1.373945
1,14,61,1221,0.715418,0.051188,-0.982272,26.225039,-125.846565,-12.123945
1,14,62,1241,0.661707,0.075602,-0.849948,19.600039,-111.346565,-16.436445
1,14,63,1261,0.598231,0.099039,-0.673679,17.162539,-106.096565,-9.561445
1,14,64,1281,0.511805,0.052164,-0.666354,19.537539,-123.221565,-6.748945
1,14,65,1301,0.470301,-0.052328,-0.926608,20.350039,-145.034058,-14.373945
1,14,66,1321,0.517176,-0.088949,-1.156589,22.537539,-128.971558,-34.498947
1,14,67,1341,0.487879,0.032145,-1.124362,14.850039,-110.534065,-40.123947
1,14,68,1361,0.440516,0.149821,-1.005710,2.912539,-111.471565,-27.811445
1,14,69,1381,0.398035,0.174723,-0.913425,-3.024961,-113.159065,-10.436445
1,14,70,1401,0.315027,0.149821,-1.037936,-9.337461,-121.846565,-1.686445
1,14,71,1421,0.306238,0.060465,-1.278659,-22.524961,-110.596565,-2.811445
1,14,72,1441,0.362879,0.022867,-1.274265,-33.774960,-77.721565,-13.936445
1,14,73,1461,0.343836,0.119547,-1.107761,-33.274960,-57.159061,-20.123945
1,14,74,1481,0.303797,0.178629,-0.984714,-20.087461,-74.534065,-16.186445
1,14,75,1501,0.587977,0.152262,-1.705905,-62.149960,-107.659065,-77.436447
1,14,76,1521,0.087488,0.536539,-1.949558,24.412539,-42.909061,-9.123945
1,14,77,1541,0.026453,0.236246,-1.123874,92.725037,71.340935,68.751053
1,14,78,1561,0.333094,-0.015707,-0.709323,24.037539,36.403439,43.876053
1,14,79,1581,0.263758,0.009684,-0.580417,9.912539,-3.409062,15.001055
1,14,80,1601,0.239344,0.000895,-0.699069,10.037539,-28.909061,-0.936445
1,14,81,1621,0.300379,0.059977,-0.984714,20.912539,-35.846561,-8.811445
1,14,82,1641,0.282801,0.107828,-1.198093,37.975040,-26.346561,-3.686445
1,14,83,1661,0.225184,0.099039,-1.152683,45.662540,-1.846562,14.126055
1,14,84,1681,0.247156,-0.008871,-0.949069,29.162539,-1.284062,19.063555
1,14,85,1701,0.258875,-0.048910,-0.888034,15.912539,-12.784062,8.313555
1,14,86,1721,0.248621,-0.034750,-0.972018,9.225039,-17.096561,-0.186445
1,14,87,1741,0.236414,0.003336,-1.027194,10.287539,-9.034062,-1.998945
1,14,88,1761,0.221766,0.019449,-1.031101,13.975039,-3.596562,-0.623945
1,14,89,1781,0.221766,0.013590,-1.006198,9.975039,-1.784062,2.501055
1,14,90,1801,0.224695,-0.005453,-0.990085,-1.774961,-5.534062,3.626055
1,14,91,1821,0.233973,-0.019613,-0.993015,-6.149961,-7.221562,2.313555
1,14,92,1841,0.232508,-0.006918,-0.992038,-4.962461,-4.471562,-0.186445
1,14,93,1861,0.231043,0.013102,-0.984714,-4.712461,-2.159062,-1.186445
1,14,94,1881,0.227625,0.025797,-0.981784,-2.087461,-0.659062,-1.498945
1,14,95,1901,0.221766,0.027750,-0.993991,-2.399961,-2.534062,-0.311445
1,14,96,1921,0.222254,0.025309,-0.992526,-3.337461,-2.596562,1.563555
1,14,97,1941,0.222254,0.015543,-0.991550,1.225039,-2.596562,1.751055
1,14,98,1961,0.219813,0.010660,-0.992526,2.037539,-3.284062,1.313555
1,14,99,1981,0.220301,0.002360,-0.995456,0.975039,-2.721562,1.126055
1,15,0,0,0.165125,-0.066488,-1.122897,-12.087461,1.653438,-4.373945
1,15,1,21,0.175867,-0.096761,-1.200046,-21.087461,17.340939,-9.186445
1,15,2,41,0.181727,-0.115316,-1.151218,-25.899961,34.528439,-14.373945
1,15,3,61,0.224207,-0.206625,-1.124362,-20.524961,25.528439,-37.686447
1,15,4,81,0.417567,-0.185140,-1.413425,-11.087461,18.653439,-74.498947
1,15,5,101,0.293055,0.073649,-1.682956,-22.274961,47.903439,-85.498947
1,15,6,121,0.210535,0.318278,-1.796726,-11.462461,115.653435,-61.436447
1,15,7,141,0.239344,0.290934,-1.659518,-1.524961,154.090942,-27.811445
1,15,8,161,0.257410,0.204020,-1.488132,-15.649961,161.778442,-12.436445
1,15,9,181,0.271570,0.171305,-1.361179,-19.149961,174.153442,-4.123945
1,15,10,201,0.270594,0.176188,-1.200534,-20.087461,209.340942,1.813555
1,15,11,221,0.314051,0.166422,-1.036960,2.037539,204.090942,9.751055
1,15,12,241,0.327235,0.121989,-1.109714,4.537539,162.215942,12.001055
1,15,13,261,0.333582,0.157145,-1.014499,-0.149961,189.340942,21.001055
1,15,14,281,0.342371,0.138590,-0.852878,13.287539,201.340942,32.438553
1,15,15,301,0.394617,0.104410,-0.748874,26.912539,204.278442,40.876053
1,15,16,321,0.447352,0.045328,-0.668796,38.975040,208.403442,44.001053
1,15,17,341,0.506922,-0.006918,-0.718601,35.475040,210.965942,38.876053
1,15,18,361,0.616785,-0.002035,-0.756686,10.162539,214.465942,34.938553
1,15,19,381,0.634363,0.055582,-0.690280,-25.087461,229.340942,37.376053
1,15,20,401,0.643641,0.019938,-0.488132,-33.024960,238.965942,45.438553
1,15,21,421,0.603113,-0.031820,-0.237643,-19.962461,236.278442,47.251053
1,15,22,441,0.607508,-0.078695,-0.078952,3.725039,221.840942,46.876053
1,15,23,461,0.647547,-0.094320,0.003567,22.412539,216.403442,42.938553
1,15,24,481,0.657801,-0.067465,0.172024,24.350039,210.403442,40.501053
1,15,25,501,0.669031,-0.056234,0.334622,17.850039,186.278442,40.751053
1,15,26,521,0.695887,-0.062094,0.476224,17.725039,153.340942,43.126053
1,15,27,541,0.725184,-0.071371,0.531399,11.287539,110.715935,46.001053
1,15,28,561,0.789149,-0.127035,0.518704,3.912539,79.840935,48.001053
1,15,29,581,0.862391,-0.237386,0.457181,-4.024961,70.278435,40.563553
1,15,30,601,0.821375,-0.287679,0.448392,-3.212461,67.278435,27.876055
1,15,31,621,0.811121,-0.317465,0.442044,-2.962461,68.840935,18.563555
1,15,32,641,0.826746,-0.326742,0.542630,-7.274961,64.465935,9.126055
1,15,33,661,0.805262,-0.321371,0.677884,-13.524961,53.903439,-1.686445
1,15,34,681,0.729578,-0.262289,0.874661,-14.212461,32.590939,-6.686445
1,15,35,701,0.733485,-0.204183,0.997220,-8.712461,2.403438,-8.311445
1,15,36,721,0.765223,-0.144613,0.993314,2.600039,-13.284062,-11.998945
1,15,37,741,0.780360,-0.120199,0.868802,18.225039,-45.034061,-9.123945
1,15,38,761,0.816492,-0.126058,0.696439,20.725039,-79.471565,-1.811445
1,15,39,781,0.820399,-0.140218,0.545560,15.350039,-96.159065,-3.498945
1,15,40,801,0.818445,-0.131918,0.422513,8.537539,-106.096565,-3.123945
1,15,41,821,0.816492,-0.130453,0.344388,0.850039,-106.159065,-4.248945
1,15,42,841,0.810633,-0.097738,0.332181,-1.024961,-104.159065,-3.311445
1,15,43,861,0.822352,-0.101156,0.285306,4.850039,-121.534065,5.376055
1,15,44,881,0.849695,-0.158773,0.135403,0.600039,-135.284058,8.751055
1,15,45,901,0.829676,-0.196371,0.016263,-3.587461,-134.221558,6.751055
1,15,46,921,0.815027,-0.230551,0.023099,-0.024961,-120.659065,0.876055
1,15,47,941,0.817957,-0.243246,0.031888,1.350039,-125.471565,-4.748945
1,15,48,961,0.834070,-0.258871,-0.085788,-1.087461,-147.909058,-10.311445
1,15,49,981,0.850184,-0.256918,-0.288913,-13.712461,-163.659058,-19.311445
1,15,50,1001,0.872645,-0.209066,-0.455417,-23.837461,-151.846558,-29.436445
1,15,51,1021,0.845789,-0.129965,-0.473972,-28.399961,-126.784065,-33.998947
1,15,52,1041,0.832606,-0.091390,-0.506198,-26.649961,-122.346565,-32.936447
1,15,53,1061,0.823817,-0.035726,-0.586276,-24.212461,-118.221565,-26.561445
1,15,54,1081,0.801356,-0.013754,-0.642917,-19.649961,-107.971565,-18.936445
1,15,55,1101,0.816004,-0.050863,-0.623386,-15.962461,-96.284065,-15.061445
1,15,56,1121,0.801356,-0.064047,-0.576022,-22.212461,-100.596565,-17.748945
1,15,57,1141,0.794031,-0.082601,-0.595065,-30.899961,-115.409065,-21.123945
1,15,58,1161,0.798914,-0.071859,-0.586276,-37.837460,-121.346565,-25.998945
1,15,59,1181,0.757899,-0.066000,-0.684909,-43.149960,-138.346558,-33.686447
1,15,60,1201,0.730555,-0.053793,-0.812351,-47.212460,-138.284058,-41.186447
1,15,61,1221,0.697840,0.017985,-0.828952,-41.774960,-123.221565,-42.748947
1,15,62,1241,0.662195,0.067301,-0.753268,-41.899960,-118.659065,-34.248947
1,15,63,1261,0.634852,0.090739,-0.753757,-43.774960,-128.659058,-27.186445
1,15,64,1281,0.595301,0.073160,-0.875339,-45.399960,-138.409058,-25.373945
1,15,65,1301,0.559656,0.065836,-1.039890,-45.399960,-137.221558,-30.623945
1,15,66,1321,0.556238,0.112711,-1.076999,-22.962461,-104.909065,-32.186447
1,15,67,1341,0.516688,0.180582,-0.967624,8.037539,-72.534065,-21.811445
1,15,68,1361,0.497156,0.181559,-0.903659,26.975039,-69.659065,-10.186445
1,15,69,1381,0.478113,0.176188,-0.938327,20.412539,-88.534065,0.251055
1,15,70,1401,0.452235,0.167887,-1.025241,2.475039,-105.034065,8.938555
1,15,71,1421,0.448328,0.070231,-1.179050,2.912539,-91.346565,7.876055
1,15,72,1441,0.472742,0.003336,-1.136569,2.912539,-55.409061,0.751055
1,15,73,1461,0.422938,0.062418,-0.966647,4.975039,-40.534061,-1.498945
1,15,74,1481,0.368738,0.113199,-0.912936,8.100039,-52.221561,2.063555
1,15,75,1501,0.355555,0.130778,-0.932956,4.037539,-68.471565,12.751055
1,15,76,1521,0.340906,0.081949,-0.987643,4.850039,-73.284065,19.501055
1,15,77,1541,0.358485,0.000895,-1.030612,4.850039,-64.784065,13.251055
1,15,78,1561,0.337488,-0.001547,-0.987643,-2.524961,-62.221561,2.813555
1,15,79,1581,0.274988,0.033610,-0.951022,-17.337461,-62.909061,-2.498945
1,15,80,1601,0.250574,0.086344,-0.911960,-23.587461,-72.221565,-1.248945
1,15,81,1621,0.244227,0.084879,-0.939792,-20.774961,-89.409065,-2.373945
1,15,82,1641,0.459070,0.057535,-1.708347,-16.462461,-108.284065,-44.373947
1,15,83,1661,0.048914,0.282145,-1.789401,72.725037,-5.784062,-0.436445
1,15,84,1681,0.111902,0.107828,-1.147311,81.662537,65.653435,32.751053
1,15,85,1701,0.231531,-0.001547,-0.687351,13.475039,20.840939,26.376055
1,15,86,1721,0.252039,-0.033773,-0.638034,4.850039,-23.346561,7.501055
1,15,87,1741,0.247156,-0.038168,-0.943698,13.287539,-38.909061,-8.186445
1,15,88,1761,0.189051,0.020426,-1.196140,22.662539,-20.784061,-10.811445
1,15,89,1781,0.161707,0.043864,-1.202487,16.412539,4.903438,0.501055
1,15,90,1801,0.182215,0.022867,-1.023288,-1.837461,7.653438,7.563555
1,15,91,1821,0.206141,0.001871,-0.907565,-6.024961,-0.034062,6.313555
1,15,92,1841,0.213465,0.000895,-0.951999,-2.087461,-8.034062,0.688555
1,15,93,1861,0.204676,0.016520,-1.021335,2.662539,-4.721562,0.001055
1,15,94,1881,0.205652,0.012614,-1.022311,1.975039,2.278438,-0.311445
1,15,95,1901,0.197352,0.027750,-0.998874,-2.587461,3.965938,-0.998945
1,15,96,1921,0.193934,0.036539,-0.980808,-5.649961,0.153438,0.001055
1,15,97,1941,0.201746,0.037516,-0.989597,-1.962461,-2.659062,1.126055
1,15,98,1961,0.200770,0.033610,-0.993503,0.412539,-0.971562,2.001055
1,15,99,1981,0.200770,0.020426,-0.993503,1.287539,-0.971562,2.626055
1,16,0,0,0.304774,0.000406,-0.901706,-9.149961,35.340939,-4.311445
1,16,1,21,0.323817,0.024332,-0.921237,10.037539,32.778439,-10.686445
1,16,2,41,0.319910,0.032145,-0.945651,10.662539,22.528439,-10.936445
1,16,3,61,0.344813,0.022379,-0.947604,0.162539,17.215939,-10.498945
1,16,4,81,0.319422,0.028727,-0.971042,-11.774961,6.028438,-10.936445
1,16,5,101,0.309168,0.046305,-1.056491,-17.274961,8.465938,-12.936445
1,16,6,121,0.327723,0.059977,-1.242526,-10.212461,26.153439,-14.686445
1,16,7,141,0.351160,0.072672,-1.452976,0.912539,50.840939,-19.248945
1,16,8,161,0.354090,0.134684,-1.602878,0.850039,77.340935,-19.061445
1,16,9,181,0.392664,0.180582,-1.784518,-6.712461,97.153435,-17.686445
1,16,10,201,0.422449,0.170328,-1.964694,-12.587461,130.903442,-16.998945
1,16,11,221,0.477137,0.288492,-1.845065,7.975039,188.778442,-8.248945
1,16,12,241,0.363367,0.323649,-1.507663,32.100040,221.965942,13.001055
1,16,13,261,0.449793,0.145914,-1.321628,38.225040,243.528442,29.938555
1,16,14,281,0.460047,0.003824,-1.208835,16.225039,194.965942,19.876055
1,16,15,301,0.371668,0.008707,-1.102390,-16.774961,190.028442,11.626055
1,16,16,321,0.341883,0.022867,-0.879733,-20.024961,215.090942,13.501055
1,16,17,341,0.317957,0.029703,-0.656101,4.662539,214.715942,14.501055
1,16,18,361,0.271082,0.045328,-0.487155,36.162540,232.590942,22.001055
1,16,19,381,0.333582,0.046305,-0.317722,60.162540,236.965942,29.563555
1,16,20,401,0.404383,0.031168,-0.301608,63.350040,224.153442,32.501053
1,16,21,421,0.524988,0.035563,-0.194186,46.100040,225.528442,36.501053
1,16,22,441,0.601649,0.031656,-0.050632,29.975039,216.965942,38.126053
1,16,23,461,0.673426,-0.033773,-0.029147,9.725039,204.965942,34.251053
1,16,24,481,0.776942,-0.112386,0.019192,-0.524961,199.278442,26.313555
1,16,25,501,0.828211,-0.130941,0.126614,-6.462461,191.778442,13.938555
1,16,26,521,0.811610,-0.114828,0.163724,-16.712461,185.528442,2.688555
1,16,27,541,0.823817,-0.069906,0.188138,-32.524960,176.278442,-0.248945
1,16,28,561,0.753504,-0.040121,0.276517,-30.587461,174.965942,-1.561445
1,16,29,581,0.723231,-0.035238,0.397122,-21.774961,175.465942,2.001055
1,16,30,601,0.666102,-0.040121,0.588040,-8.399961,169.340942,6.313555
1,16,31,621,0.605555,-0.035726,0.763333,5.850039,152.028442,11.001055
1,16,32,641,0.598719,-0.062582,0.931790,11.037539,124.028435,17.126055
1,16,33,661,0.607020,-0.107504,1.076810,10.412539,84.465935,19.063555
1,16,34,681,0.598231,-0.134847,1.113919,8.475039,44.340939,17.626055
1,16,35,701,0.605555,-0.149008,1.117337,2.162539,4.778438,15.626055
1,16,36,721,0.641688,-0.139730,1.026517,3.912539,-36.909061,16.501055
1,16,37,741,0.712977,-0.141683,0.891751,3.662539,-67.846565,14.126055
1,16,38,761,0.753992,-0.113851,0.755521,3.600039,-96.159065,14.688555
1,16,39,781,0.788172,-0.122640,0.642728,0.225039,-121.721565,15.626055
1,16,40,801,0.785242,-0.132894,0.561673,-8.899961,-138.221558,11.126055
1,16,41,821,0.764735,-0.142172,0.443509,-22.712461,-147.284058,4.126055
1,16,42,841,0.736902,-0.127523,0.359524,-30.962461,-145.659058,-0.373945
1,16,43,861,0.736414,-0.116293,0.342435,-30.524961,-139.159058,-1.311445
1,16,44,881,0.735438,-0.100179,0.356595,-20.274961,-143.721558,-0.748945
1,16,45,901,0.748133,-0.099203,0.294583,-4.337461,-167.409058,2.938555
1,16,46,921,0.741785,-0.121664,0.137357,-4.587461,-189.659058,2.813555
1,16,47,941,0.722254,-0.151449,0.008939,-1.899961,-190.846558,-1.936445
1,16,48,961,0.732996,-0.165121,-0.087741,-11.712461,-191.159058,-9.998945
1,16,49,981,0.736902,-0.123617,-0.222018,-36.649960,-202.971558,-18.873945
1,16,50,1001,0.739832,-0.092855,-0.456882,-52.212460,-209.159058,-22.936445
1,16,51,1021,0.746668,-0.075765,-0.620456,-40.774960,-184.784058,-23.748945
1,16,52,1041,0.748133,-0.087484,-0.642917,-19.212461,-159.909058,-22.811445
1,16,53,1061,0.748133,-0.088461,-0.763522,-23.024961,-165.909058,-25.811445
1,16,54,1081,0.770106,-0.031820,-0.997897,-46.774960,-177.846558,-29.623945
1,16,55,1101,0.808192,0.066324,-1.081882,-65.524963,-151.471558,-26.123945
1,16,56,1121,0.763270,0.099528,-0.926608,-58.649960,-108.534065,-17.686445
1,16,57,1141,0.712488,0.068278,-0.758640,-24.837461,-98.471565,-4.748945
1,16,58,1161,0.703699,0.038492,-0.819675,0.225039,-105.596565,3.251055
1,16,59,1181,0.691004,0.023356,-1.003268,4.850039,-108.346565,4.313555
1,16,60,1201,0.728113,-0.003011,-1.098483,-16.524961,-101.409065,2.626055
1,16,61,1221,0.706141,0.028239,-0.930515,-33.087460,-84.971565,1.813555
1,16,62,1241,0.633875,0.053629,-0.697116,-30.337461,-82.471565,8.313555
1,16,63,1261,0.573817,0.033121,-0.645358,-22.649961,-99.221565,10.751055
1,16,64,1281,0.524500,-0.025472,-0.831393,-10.837461,-114.909065,7.188555
1,16,65,1301,0.560633,-0.124594,-1.069186,-0.712461,-108.034065,-8.748945
1,16,66,1321,0.561121,-0.054281,-1.041354,-4.087461,-90.409065,-20.936445
1,16,67,1341,0.510340,0.067301,-0.890964,-5.649961,-85.221565,-16.123945
1,16,68,1361,0.452235,0.093668,-0.764987,-2.337461,-90.721565,-0.686445
1,16,69,1381,0.391199,0.025797,-0.838229,4.787539,-111.909065,4.063555
1,16,70,1401,0.390223,-0.104086,-1.114108,6.100039,-114.221565,-6.248945
1,16,71,1421,0.426356,-0.100668,-1.216159,8.287539,-88.034065,-20.936445
1,16,72,1441,0.391199,0.022379,-1.131198,14.600039,-62.846561,-19.498945
1,16,73,1461,0.349207,0.099039,-1.004733,24.787539,-48.846561,-6.748945
1,16,74,1481,0.316981,0.087321,-0.894870,29.787539,-45.159061,6.813555
1,16,75,1501,0.270594,-0.000082,-0.912936,24.475039,-61.409061,9.438555
1,16,76,1521,0.271082,-0.094808,-1.024265,13.475039,-70.909065,4.126055
1,16,77,1541,0.301844,-0.116781,-1.046237,10.162539,-65.096565,-13.311445
1,16,78,1561,0.492762,-0.142660,-1.793796,-25.587461,-99.846565,-87.998947
1,16,79,1581,0.123133,0.240641,-1.933444,41.225040,0.840938,-23.936445
1,16,80,1601,0.134363,0.159586,-1.237643,42.475040,97.528435,38.188553
1,16,81,1621,0.261317,0.016520,-0.669284,-34.399960,50.215939,30.376055
1,16,82,1641,0.270594,-0.014242,-0.564304,-14.212461,-10.534062,22.188555
1,16,83,1661,0.298426,-0.086996,-0.753757,22.725039,-36.221561,7.438555
1,16,84,1681,0.276942,-0.088461,-1.074558,31.287539,-36.534061,-4.623945
1,16,85,1701,0.259363,-0.031332,-1.218112,24.162539,-13.784062,-1.373945
1,16,86,1721,0.251551,-0.035238,-1.096042,14.162539,8.965938,8.813555
1,16,87,1741,0.252527,-0.054769,-0.907565,-3.524961,6.403438,9.251055
1,16,88,1761,0.259852,-0.065023,-0.905124,0.850039,-6.909062,5.876055
1,16,89,1781,0.256922,-0.073812,-0.998874,2.912539,-10.221562,3.938555
1,16,90,1801,0.257410,-0.070883,-1.015964,-0.087461,-4.596562,2.751055
1,16,91,1821,0.250574,-0.070394,-0.994968,-2.649961,-0.034062,-0.373945
1,16,92,1841,0.250086,-0.053793,-0.980808,-5.274961,0.903438,-2.248945
1,16,93,1861,0.251063,-0.031332,-0.972507,-6.587461,-0.721562,-1.998945
1,16,94,1881,0.254969,-0.037191,-0.987643,-1.962461,-1.471562,-0.998945
1,16,95,1901,0.253016,-0.040121,-0.989108,-0.274961,0.215938,-0.686445
1,16,96,1921,0.252527,-0.036703,-0.980319,-0.462461,-0.346562,-0.873945
1,16,97,1941,0.250574,-0.041586,-0.992526,-0.399961,-0.721562,-2.561445
1,16,98,1961,0.253016,-0.043051,-0.992038,-0.524961,0.590938,-2.311445
1,16,99,1981,0.253504,-0.037679,-0.986667,-0.462461,0.653438,-1.873945
1,17,0,0,0.163660,-0.050863,-1.114597,-20.837461,-0.159062,-2.811445
1,17,1,21,0.215418,-0.070394,-1.209811,-23.774961,17.528439,-2.561445
1,17,2,41,0.242762,-0.076742,-1.213229,-38.837460,40.778439,-8.498945
1,17,3,61,0.318934,-0.065023,-1.305026,-50.962460,46.965939,-23.623945
1,17,4,81,0.416102,0.014567,-1.403171,-19.149961,70.278435,-22.123945
1,17,5,101,0.334559,0.048258,-1.289401,12.662539,88.528435,-16.623945
1,17,6,121,0.327723,0.067301,-1.286960,13.850039,91.778435,-7.811445
1,17,7,141,0.379969,0.027750,-1.307468,20.100039,93.028435,0.251055
1,17,8,161,0.354090,-0.006918,-1.309421,20.162539,115.153435,2.501055
1,17,9,181,0.360438,-0.039144,-1.295261,21.100039,140.403442,3.626055
1,17,10,201,0.410242,-0.033773,-1.219089,23.475039,153.653442,4.063555
1,17,11,221,0.412684,-0.009847,-1.101901,30.725039,179.840942,5.626055
1,17,12,241,0.458582,0.006266,-1.082370,43.037540,177.840942,11.376055
1,17,13,261,0.501551,-0.015707,-1.163913,35.662540,156.153442,18.251055
1,17,14,281,0.565027,-0.041586,-1.136081,-2.962461,172.153442,21.188555
1,17,15,301,0.544031,-0.039144,-0.954440,-23.774961,188.465942,22.063555
1,17,16,321,0.534266,-0.050863,-0.753268,-17.087461,188.840942,28.688555
1,17,17,341,0.553309,-0.088461,-0.577487,8.412539,194.465942,33.063553
1,17,18,361,0.574793,-0.090902,-0.449558,28.287539,183.903442,32.876053
1,17,19,381,0.596277,-0.089437,-0.385104,37.225040,175.340942,33.001053
1,17,20,401,0.635828,-0.100668,-0.347995,41.100040,181.778442,33.501053
1,17,21,421,0.689051,-0.128988,-0.308933,26.100039,178.778442,33.688553
1,17,22,441,0.764246,-0.177816,-0.225436,2.975039,168.778442,30.063555
1,17,23,461,0.786219,-0.207601,-0.177585,-4.649961,149.153442,25.751055
1,17,24,481,0.857020,-0.235433,-0.192722,-5.524961,139.965942,25.438555
1,17,25,501,0.889246,-0.245199,-0.255710,0.787539,150.528442,25.376055
1,17,26,521,0.935633,-0.284750,-0.308933,-3.712461,161.153442,16.563555
1,17,27,541,0.961024,-0.305258,-0.301608,-19.399961,160.778442,3.876055
1,17,28,561,0.943445,-0.298422,-0.286960,-38.774960,162.528442,-4.998945
1,17,29,581,0.912684,-0.263754,-0.227878,-50.837460,170.028442,-10.873945
1,17,30,601,0.883387,-0.232992,-0.134616,-54.774960,177.715942,-12.936445
1,17,31,621,0.797938,-0.211508,-0.067722,-57.587460,185.278442,-11.623945
1,17,32,641,0.704676,-0.239828,0.183743,-41.524960,199.278442,-6.061445
1,17,33,661,0.580652,-0.246176,0.487942,-18.712461,204.778442,-4.061445
1,17,34,681,0.474207,-0.247152,0.745267,-1.087461,187.778442,-3.061445
1,17,35,701,0.376063,-0.255941,0.946439,7.350039,146.965942,-0.811445
1,17,36,721,0.348719,-0.295980,1.206204,0.162539,106.465935,4.438555
1,17,37,741,0.403406,-0.336019,1.419583,-21.774961,54.528439,0.501055
1,17,38,761,0.464930,-0.303793,1.275052,-15.774961,-7.284062,-3.311445
1,17,39,781,0.627527,-0.260824,1.007962,-6.337461,-45.159061,-3.186445
1,17,40,801,0.754481,-0.196371,0.714505,7.600039,-55.784061,0.563555
1,17,41,821,0.862391,-0.157797,0.569485,13.162539,-54.846561,-0.873945
1,17,42,841,0.917567,-0.132406,0.482571,6.537539,-54.596561,-5.061445
1,17,43,861,0.919520,-0.126547,0.412259,3.287539,-59.659061,-6.248945
1,17,44,881,0.900477,-0.119711,0.316556,2.350039,-50.534061,-5.436445
1,17,45,901,0.872156,-0.149984,0.386380,-0.024961,-36.471561,-4.498945
1,17,46,921,0.811610,-0.182699,0.552884,0.412539,-34.346561,-5.186445
1,17,47,941,0.727625,-0.197347,0.661771,4.225039,-46.284061,-4.748945
1,17,48,961,0.728113,-0.213949,0.635892,7.412539,-75.221565,-1.998945
1,17,49,981,0.763758,-0.225179,0.532864,10.225039,-93.971565,0.938555
1,17,50,1001,0.758875,-0.237386,0.453274,14.162539,-107.284065,2.126055
1,17,51,1021,0.772547,-0.277426,0.397610,23.350039,-114.846565,1.188555
1,17,52,1041,0.809168,-0.279379,0.357571,31.537539,-126.221565,-2.686445
1,17,53,1061,0.874110,-0.272543,0.256497,28.100039,-146.909058,-10.123945
1,17,54,1081,0.893641,-0.277914,0.128079,7.162539,-170.159058,-25.498945
1,17,55,1101,0.866785,-0.251547,0.027005,-2.274961,-178.221558,-40.873947
1,17,56,1121,0.837488,-0.230062,-0.015964,6.662539,-179.221558,-52.248947
1,17,57,1141,0.807703,-0.179281,-0.115573,15.162539,-180.409058,-58.436447
1,17,58,1161,0.820399,-0.119222,-0.205905,12.475039,-176.471558,-60.623947
1,17,59,1181,0.793055,-0.054281,-0.226413,8.100039,-168.221558,-60.123947
1,17,60,1201,0.758387,-0.015707,-0.247897,2.100039,-170.034058,-57.498947
1,17,61,1221,0.718348,-0.003988,-0.293796,-2.274961,-178.659058,-53.561447
1,17,62,1241,0.698817,-0.037679,-0.332858,3.162539,-191.971558,-52.373947
1,17,63,1261,0.680262,-0.065511,-0.485690,5.100039,-215.971558,-60.686447
1,17,64,1281,0.644617,-0.038656,-0.780612,-5.712461,-223.596558,-76.123947
1,17,65,1301,0.651453,0.118571,-0.945651,-38.087460,-194.409058,-83.061447
1,17,66,1321,0.644129,0.247965,-0.817722,-58.837460,-151.971558,-70.623947
1,17,67,1341,0.552332,0.291910,-0.699069,-44.774960,-146.471558,-45.061447
1,17,68,1361,0.515223,0.245524,-0.822116,-25.087461,-166.659058,-26.936445
1,17,69,1381,0.532801,0.175699,-1.181979,-17.274961,-169.721558,-22.248945
1,17,70,1401,0.626063,0.220133,-1.284518,-23.337461,-116.409065,-14.061445
1,17,71,1421,0.589930,0.241617,-0.975925,-14.462461,-68.534065,1.188555
1,17,72,1441,0.449305,0.256754,-0.884616,1.100039,-76.096565,20.001055
1,17,73,1461,0.434168,0.276774,-1.087741,-13.212461,-97.846565,34.563553
1,17,74,1481,0.537195,0.235270,-1.335788,-47.899960,-125.534065,37.251053
1,17,75,1501,0.597742,0.103434,-1.278659,-45.649960,-92.596565,37.126053
1,17,76,1521,0.588465,0.041422,-0.938327,3.850039,-46.346561,29.501055
1,17,77,1541,0.500574,0.030192,-0.744479,61.037540,-41.096561,15.501055
1,17,78,1561,0.351649,0.059977,-0.849460,70.787537,-48.034061,11.188555
1,17,79,1581,0.363856,0.102457,-1.017429,45.037540,-74.784065,13.501055
1,17,80,1601,0.428797,0.019449,-1.100925,26.662539,-96.534065,7.501055
1,17,81,1621,0.423426,-0.011801,-1.091159,23.350039,-84.471565,-7.561445
1,17,82,1641,0.408777,0.014078,-1.035983,17.100039,-64.034065,-20.123945
1,17,83,1661,0.321375,0.071207,-0.966647,8.225039,-63.659061,-24.061445
1,17,84,1681,0.473719,0.077067,-1.380222,-23.337461,-98.721565,-61.061447
