label,rep,idx,t_ms,ax,ay,az,gx,gy,gz
2,1,0,0,0.139734,-0.090414,-1.143405,-14.899961,31.465939,-9.373945
2,1,1,21,0.178309,-0.080160,-1.150729,-23.274961,61.590939,-12.873945
2,1,2,41,0.178309,-0.034750,-1.032077,-25.024961,74.715935,-10.311445
2,1,3,61,0.202234,-0.075765,-1.162936,-14.962461,81.028435,-15.123945
2,1,4,81,0.299891,-0.003011,-1.322604,9.912539,111.028435,-19.873945
2,1,5,101,0.438563,0.177653,-1.432468,66.850037,127.278435,-8.811445
2,1,6,121,0.349695,0.019449,-1.566257,79.287537,140.778442,4.813555
2,1,7,141,0.489832,-0.192465,-1.557956,9.037539,180.090942,-10.373945
2,1,8,161,0.607996,-0.207601,-1.585788,-46.087460,201.840942,-35.686447
2,1,9,181,0.449305,0.063883,-1.385104,-37.712460,229.403442,-29.373945
2,1,10,201,0.441492,0.184000,-1.102390,2.537539,229.903442,1.876055
2,1,11,221,0.520594,0.093180,-0.882175,27.100039,208.715942,11.313555
2,1,12,241,0.644617,-0.021078,-0.790866,30.475039,189.528442,9.188555
2,1,13,261,0.692957,-0.116293,-0.769382,29.850039,166.840942,1.688555
2,1,14,281,0.714442,-0.137777,-0.812351,12.787539,140.465942,-19.498945
2,1,15,301,0.665613,-0.008383,-0.764011,-6.399961,142.028442,-24.498945
2,1,16,321,0.643641,0.066813,-0.597507,-15.337461,143.778442,-14.936445
2,1,17,341,0.696863,0.024821,-0.539401,-8.274961,129.090942,-8.686445
2,1,18,361,0.749110,-0.010336,-0.561862,-1.774961,122.090935,-6.748945
2,1,19,381,0.773035,0.012125,-0.556491,6.975039,131.278442,-7.498945
2,1,20,401,0.798914,0.015055,-0.525241,17.037539,138.403442,-1.248945
2,1,21,421,0.818445,0.038492,-0.424167,17.162539,148.340942,2.251055
2,1,22,441,0.883875,0.029215,-0.321628,6.850039,146.590942,4.126055
2,1,23,461,0.864344,0.015055,-0.208835,0.787539,148.403442,7.563555
2,1,24,481,0.835535,-0.012777,-0.087253,1.850039,149.903442,6.001055
2,1,25,501,0.895594,0.002848,0.097317,-0.399961,144.528442,1.501055
2,1,26,521,0.932215,0.030192,0.262357,0.975039,126.028435,-3.498945
2,1,27,541,0.911707,0.065836,0.339017,-3.212461,102.215935,-5.873945
2,1,28,561,0.916102,0.090250,0.361966,-6.274961,76.090935,4.876055
2,1,29,581,0.929774,0.046793,0.306302,-1.212461,56.403439,17.501055
2,1,30,601,0.915125,-0.002035,0.237942,8.350039,45.465939,24.688555
2,1,31,621,0.897059,-0.066488,0.167630,8.725039,41.590939,24.626055
2,1,32,641,0.841883,-0.105062,0.152982,1.350039,47.778439,19.626055
2,1,33,661,0.795985,-0.117269,0.195950,-8.962461,44.028439,11.938555
2,1,34,681,0.777918,-0.133383,0.220853,-16.899961,28.903439,4.438555
2,1,35,701,0.754969,-0.112386,0.223782,-13.024961,15.965938,2.876055
2,1,36,721,0.789149,-0.129965,0.169095,-5.149961,5.715938,2.688555
2,1,37,741,0.810145,-0.150961,0.117337,-0.837461,-0.659062,-2.186445
2,1,38,761,0.828211,-0.148519,0.079251,-4.962461,-8.159062,-6.936445
2,1,39,781,0.870692,-0.142172,0.067532,-3.149961,-11.471562,-14.311445
2,1,40,801,0.902918,-0.127523,0.071439,-2.087461,-13.909062,-22.623945
2,1,41,821,0.926844,-0.077230,0.096829,1.037539,-14.534062,-26.561445
2,1,42,841,0.968836,-0.053304,0.109036,5.975039,-17.284061,-22.998945
2,1,43,861,1.035731,-0.087484,0.078763,15.912539,-24.534061,-20.311445
2,1,44,881,1.084559,-0.140218,-0.014011,31.787539,-32.221561,-17.498945
2,1,45,901,1.142664,-0.202230,-0.133640,58.725040,-33.596561,-11.623945
2,1,46,921,1.214930,-0.281332,-0.264987,91.725037,-27.721561,-7.998945
2,1,47,941,1.234461,-0.313070,-0.403171,105.412537,-26.909061,-19.061445
2,1,48,961,1.251551,-0.252523,-0.579440,93.537537,-31.596561,-33.873947
2,1,49,981,1.243250,-0.102621,-0.731296,105.037537,-15.034062,-40.686447
2,1,50,1001,1.216395,0.077067,-0.796237,148.475037,33.590939,-36.123947
2,1,51,1021,1.142176,0.254801,-0.711276,164.162537,104.465935,-27.748945
2,1,52,1041,0.966395,0.395426,-0.388522,140.725037,149.278442,-21.936445
2,1,53,1061,0.851649,0.466227,-0.299655,96.350037,149.528442,-19.873945
2,1,54,1081,0.807703,0.516032,-0.178073,26.725039,144.903442,-20.998945
2,1,55,1101,0.755457,0.549723,-0.083835,-38.024960,152.153442,-18.561445
2,1,56,1121,0.675379,0.509196,0.142239,-58.524960,169.840942,-10.498945
2,1,57,1141,0.622156,0.422770,0.492825,-41.774960,168.153442,2.126055
2,1,58,1161,0.643641,0.312418,0.739407,-63.149960,131.153442,10.063555
2,1,59,1181,0.729090,0.182535,0.703763,-105.774963,93.653435,11.563555
2,1,60,1201,0.751551,0.079508,0.746243,-115.587463,89.028435,2.126055
2,1,61,1221,0.753992,-0.022543,0.915677,-140.774963,76.840935,-14.186445
2,1,62,1241,0.740809,-0.093344,1.110013,-143.212463,57.340939,-27.748945
2,1,63,1261,0.702235,-0.142660,1.252591,-101.837463,35.528439,-28.936445
2,1,64,1281,0.670496,-0.167074,1.261380,-62.212460,4.528438,-25.561445
2,1,65,1301,0.691004,-0.198324,1.097806,-47.587460,-25.784061,-25.186445
2,1,66,1321,0.703211,-0.217855,0.971829,-54.712460,-47.471561,-32.561447
2,1,67,1341,0.719324,-0.179281,0.904935,-66.462463,-64.659065,-40.623947
2,1,68,1361,0.751063,-0.137777,0.836575,-82.837463,-84.534065,-51.186447
2,1,69,1381,0.730067,-0.002523,0.754544,-99.149963,-106.409065,-57.373947
2,1,70,1401,0.717860,0.162028,0.665677,-93.212463,-121.096565,-42.811447
2,1,71,1421,0.753504,0.218668,0.566067,-73.712463,-126.159065,-13.686445
2,1,72,1441,0.769617,0.159098,0.445950,-54.462460,-126.596565,10.126055
2,1,73,1461,0.760828,0.077555,0.344876,-28.962461,-121.596565,32.501053
2,1,74,1481,0.759363,-0.028890,0.242825,-3.649961,-110.909065,50.813553
2,1,75,1501,0.768641,-0.221761,0.110013,17.975039,-94.659065,61.876053
2,1,76,1521,0.788172,-0.398031,0.104642,17.912539,-83.221565,56.438553
2,1,77,1541,0.788660,-0.468343,0.131985,5.100039,-93.846565,46.188553
2,1,78,1561,0.836512,-0.640707,-0.024753,-2.274961,-130.596558,42.688553
2,1,79,1581,0.935145,-0.879476,-0.306491,24.850039,-138.784058,32.251053
2,1,80,1601,0.990809,-0.960531,-0.516452,61.100040,-113.221565,3.313555
2,1,81,1621,1.037195,-0.874105,-0.685886,47.975040,-110.034065,-26.873945
2,1,82,1641,1.097742,-0.678793,-0.800632,-13.087461,-113.409065,-51.498947
2,1,83,1661,1.082606,-0.390218,-0.794772,10.412539,-78.846565,-53.811447
2,1,84,1681,1.083094,-0.285726,-0.669284,37.787540,-52.159061,-43.061447
2,1,85,1701,1.081629,-0.281332,-0.632663,61.912540,-32.971561,-40.248947
2,1,86,1721,1.071375,-0.202718,-0.551120,90.225037,-8.096562,-41.061447
2,1,87,1741,1.045985,-0.090902,-0.545261,94.350037,-5.409062,-36.561447
2,1,88,1761,1.076746,-0.036215,-0.579929,78.225037,-3.784062,-32.561447
2,1,89,1781,1.066981,0.061930,-0.513522,61.975040,8.340938,-35.686447
2,1,90,1801,1.022059,0.196696,-0.426120,55.037540,17.903439,-33.998947
2,1,91,1821,0.987879,0.295328,-0.359226,51.787540,23.590939,-28.436445
2,1,92,1841,0.951258,0.352946,-0.316745,42.037540,22.403439,-22.436445
2,1,93,1861,0.991785,0.367594,-0.311374,30.225039,22.778439,-13.373945
2,1,94,1881,0.978602,0.344645,-0.244479,27.412539,35.340939,-7.811445
2,1,95,1901,0.959070,0.309489,-0.157077,26.850039,39.090939,-5.311445
2,1,96,1921,0.962488,0.280192,-0.092624,17.725039,40.278439,-6.623945
2,1,97,1941,0.934656,0.273844,-0.035007,-2.524961,36.528439,-7.311445
2,1,98,1961,0.916590,0.238688,0.060696,-9.774961,37.653439,-3.623945
2,1,99,1981,0.906336,0.179606,0.167630,0.850039,33.278439,1.126055
2,2,0,0,1.049891,-0.147543,-0.262546,12.287539,-3.159062,-0.811445
2,2,1,21,1.079676,-0.183187,-0.338718,15.912539,-3.159062,-3.248945
2,2,2,41,1.102625,-0.221273,-0.402194,24.787539,-1.346562,-7.373945
2,2,3,61,1.115809,-0.236410,-0.458835,27.975039,-1.409062,-12.561445
2,2,4,81,1.115320,-0.236898,-0.537936,21.537539,-2.471562,-19.186445
2,2,5,101,1.128992,-0.222250,-0.667331,23.600039,5.965938,-23.998945
2,2,6,121,1.114344,-0.194418,-0.711276,34.225040,32.465939,-33.561447
2,2,7,141,1.069422,-0.093344,-0.625827,27.537539,57.965939,-40.498947
2,2,8,161,1.014246,-0.005941,-0.508151,24.850039,73.340935,-43.186447
2,2,9,181,0.955164,0.034098,-0.342624,24.287539,89.340935,-44.186447
2,2,10,201,0.926356,0.071696,-0.264499,30.600039,95.153435,-43.686447
2,2,11,221,0.930262,0.123453,-0.228366,36.287540,95.840935,-43.311447
2,2,12,241,0.897547,0.184977,-0.157565,33.162540,105.965935,-42.748947
2,2,13,261,0.877039,0.248453,-0.034518,29.225039,116.090935,-39.373947
2,2,14,281,0.885828,0.290446,0.044095,21.975039,114.153435,-36.686447
2,2,15,301,0.878504,0.334879,0.071927,13.850039,115.465935,-35.623947
2,2,16,321,0.845301,0.383219,0.131985,7.600039,121.278435,-33.748947
2,2,17,341,0.823817,0.424235,0.215970,8.287539,122.965935,-28.123945
2,2,18,361,0.814051,0.444742,0.304349,-4.399961,123.590935,-26.373945
2,2,19,381,0.790125,0.476481,0.377591,-29.712461,120.778435,-23.748945
2,2,20,401,0.760340,0.488688,0.492825,-45.649960,125.965935,-17.623945
2,2,21,421,0.720789,0.488199,0.620267,-57.524960,125.840935,-8.373945
2,2,22,441,0.711512,0.459391,0.748685,-65.712463,110.715935,5.188555
2,2,23,461,0.732020,0.384684,0.842923,-92.149963,81.028435,11.313555
2,2,24,481,0.716883,0.328532,0.889310,-132.337463,46.840939,7.876055
2,2,25,501,0.697840,0.296793,0.898587,-144.712463,21.153439,7.438555
2,2,26,521,0.699793,0.264567,0.886380,-139.774963,2.028438,13.626055
2,2,27,541,0.739832,0.201578,0.816556,-131.587463,-20.221561,24.126055
2,2,28,561,0.775965,0.135660,0.703274,-139.462463,-41.596561,30.688555
2,2,29,581,0.804774,0.062906,0.583157,-147.462463,-56.221561,32.813553
2,2,30,601,0.791102,-0.016683,0.456692,-147.399963,-61.971561,35.438553
2,2,31,621,0.805750,-0.109945,0.384427,-133.649963,-48.159061,42.501053
2,2,32,641,0.839930,-0.249593,0.439114,-94.837463,-28.471561,45.751053
2,2,33,661,0.851160,-0.352621,0.518704,-66.212463,-23.284061,39.251053
2,2,34,681,0.856043,-0.407797,0.559232,-63.587460,-40.346561,29.501055
2,2,35,701,0.892176,-0.463949,0.485989,-56.837460,-56.471561,24.376055
2,2,36,721,0.893152,-0.492758,0.455716,-36.337460,-54.971561,19.563555
2,2,37,741,0.889246,-0.483968,0.492337,-23.587461,-52.221561,12.063555
2,2,38,761,0.857020,-0.433187,0.563138,-16.399961,-59.221561,-0.686445
2,2,39,781,0.837488,-0.365316,0.565579,-17.337461,-85.971565,-8.186445
2,2,40,801,0.843348,-0.355551,0.408841,-18.024961,-113.471565,-10.186445
2,2,41,821,0.835047,-0.354574,0.287259,-12.837461,-117.784065,-12.623945
2,2,42,841,0.836512,-0.377523,0.221341,7.412539,-113.971565,-12.748945
2,2,43,861,0.858485,-0.404867,0.178860,46.162540,-103.846565,-12.248945
2,2,44,881,0.896082,-0.423910,0.118802,71.537537,-105.346565,-8.811445
2,2,45,901,0.944910,-0.462972,0.024564,66.537537,-111.596565,-9.248945
2,2,46,921,0.981043,-0.497152,-0.038425,49.537540,-122.284065,-15.373945
2,2,47,941,1.000086,-0.521566,-0.186374,35.037540,-137.096558,-22.123945
2,2,48,961,1.025477,-0.530355,-0.380222,35.287540,-131.409058,-30.061445
2,2,49,981,1.038660,-0.550375,-0.510104,41.662540,-111.221565,-44.186447
2,2,50,1001,1.022547,-0.434164,-0.534518,41.475040,-89.784065,-61.186447
2,2,51,1021,1.006434,-0.246176,-0.545749,30.412539,-84.909065,-68.936447
2,2,52,1041,1.009852,-0.094808,-0.638034,21.350039,-76.096565,-63.811447
2,2,53,1061,1.001063,0.025797,-0.671237,41.162540,-57.596561,-49.436447
2,2,54,1081,0.992274,0.022379,-0.623874,58.225040,-33.034061,-36.123947
2,2,55,1101,1.000086,-0.024008,-0.522311,65.600037,-14.659062,-34.061447
2,2,56,1121,0.999598,-0.024496,-0.446140,61.475040,-7.846562,-38.436447
2,2,57,1141,1.024500,-0.015219,-0.442233,50.662540,-12.971562,-41.998947
2,2,58,1161,1.031336,0.017496,-0.466159,39.662540,-10.159062,-44.686447
2,2,59,1181,1.009852,0.096110,-0.458347,31.787539,-0.284062,-43.998947
2,2,60,1201,0.997156,0.130289,-0.409518,26.787539,5.715938,-42.311447
2,2,61,1221,0.986902,0.159098,-0.351901,19.100039,8.715938,-42.811447
2,2,62,1241,0.969813,0.210367,-0.273288,11.037539,8.528438,-40.998947
2,2,63,1261,0.963953,0.243571,-0.216159,10.600039,6.528438,-34.748947
2,2,64,1281,0.963465,0.273844,-0.197116,13.725039,5.215938,-28.748945
2,2,65,1301,0.959070,0.287028,-0.212253,12.225039,2.903438,-20.623945
2,2,66,1321,0.962000,0.283610,-0.216647,4.975039,1.153438,-14.686445
2,2,67,1341,0.963465,0.274332,-0.196140,1.475039,0.215938,-7.998945
2,2,68,1361,0.974207,0.243571,-0.186862,-1.149961,-2.159062,-1.748945
2,2,69,1381,0.985926,0.206949,-0.191257,-3.649961,-2.659062,1.376055
2,2,70,1401,0.990809,0.193278,-0.198581,-6.462461,-4.096562,4.501055
2,2,71,1421,0.994715,0.173258,-0.208835,-6.462461,-4.971562,8.813555
2,2,72,1441,0.998133,0.122965,-0.237643,-5.274961,-4.784062,11.751055
2,2,73,1461,1.007410,0.070231,-0.256198,-5.712461,-3.284062,12.126055
2,2,74,1481,1.007899,0.049235,-0.239597,-7.024961,-1.346562,10.563555
2,2,75,1501,1.005945,0.034586,-0.231784,-8.837461,-2.784062,9.751055
2,2,76,1521,1.012293,0.021403,-0.257175,-9.149961,-4.471562,9.313555
2,2,77,1541,1.023035,0.001383,-0.275729,-10.649961,-5.284062,8.563555
2,2,78,1561,1.033777,-0.016195,-0.301120,-12.087461,-3.659062,6.813555
2,2,79,1581,1.027430,-0.018636,-0.308933,-9.399961,-0.221562,6.938555
2,2,80,1601,1.027918,-0.040121,-0.299167,-3.087461,3.965938,6.251055
2,2,81,1621,1.017176,-0.043539,-0.256198,-1.274961,6.465938,3.376055
2,2,82,1641,1.008875,-0.019125,-0.236667,-3.274961,3.965938,0.376055
2,2,83,1661,1.004481,0.007242,-0.232272,-4.462461,2.903438,0.313555
2,2,84,1681,1.009363,0.008219,-0.242038,-2.337461,1.528438,1.001055
2,2,85,1701,1.024012,-0.004965,-0.273288,-2.212461,0.653438,-0.686445
2,2,86,1721,1.018152,-0.000082,-0.269382,-1.524961,5.340938,-3.186445
2,2,87,1741,1.006922,0.023356,-0.222995,2.037539,8.653438,-5.436445
2,2,88,1761,0.990809,0.048746,-0.198093,2.350039,6.340938,-4.998945
2,2,89,1781,0.991785,0.058024,-0.186374,0.412539,3.965938,-3.061445
2,2,90,1801,0.990320,0.064860,-0.180515,0.600039,2.153438,-1.311445
2,2,91,1821,0.993738,0.061930,-0.191745,1.787539,0.778438,-0.186445
2,2,92,1841,1.000574,0.049723,-0.197116,3.787539,1.778438,0.251055
2,2,93,1861,0.999110,0.045817,-0.182468,5.475039,1.590938,0.063555
2,2,94,1881,0.994715,0.056559,-0.180026,3.600039,-1.409062,-0.623945
2,2,95,1901,0.991297,0.069254,-0.187839,-0.149961,-3.909062,0.063555
2,2,96,1921,0.989832,0.068278,-0.207370,-0.337461,-6.034062,1.876055
2,2,97,1941,1.006434,0.047281,-0.233249,2.225039,-5.534062,3.063555
2,2,98,1961,1.010828,0.034586,-0.246921,2.162539,-4.221562,3.063555
2,2,99,1981,1.015711,0.025797,-0.256686,1.225039,-4.221562,2.688555
2,3,0,0,1.027918,-0.120687,-0.266940,25.100039,0.340938,-7.498945
2,3,1,21,1.053309,-0.134847,-0.350436,25.162539,-1.346562,-12.248945
2,3,2,41,1.073328,-0.136801,-0.428561,24.287539,-1.659062,-17.248945
2,3,3,61,1.067957,-0.128011,-0.448581,28.912539,3.590938,-21.936445
2,3,4,81,1.049402,-0.094808,-0.436862,36.600040,13.840938,-24.686445
2,3,5,101,1.032313,-0.076254,-0.374851,44.225040,22.340939,-27.061445
2,3,6,121,1.003016,-0.041586,-0.333347,55.537540,25.028439,-28.561445
2,3,7,141,1.018641,-0.017660,-0.381198,62.537540,21.590939,-31.061445
2,3,8,161,1.031824,0.021891,-0.469089,56.037540,27.278439,-34.936447
2,3,9,181,1.028406,0.049723,-0.433933,58.350040,47.028439,-37.248947
2,3,10,201,0.996180,0.077555,-0.329440,56.600040,55.903439,-39.998947
2,3,11,221,0.979578,0.122965,-0.286472,52.287540,53.965939,-42.186447
2,3,12,241,0.972742,0.182047,-0.300632,46.350040,53.090939,-43.311447
2,3,13,261,0.987391,0.226481,-0.300143,36.475040,48.840939,-46.748947
2,3,14,281,1.016199,0.265055,-0.318210,22.850039,53.778439,-41.123947
2,3,15,301,0.993738,0.324137,-0.333347,8.225039,59.715939,-37.811447
2,3,16,321,0.998133,0.352457,-0.306491,-4.337461,70.715935,-33.061447
2,3,17,341,0.989832,0.368082,-0.276706,-19.399961,86.153435,-33.123947
2,3,18,361,0.925379,0.413004,-0.206882,-26.274961,92.528435,-26.186445
2,3,19,381,0.915613,0.434977,-0.118991,-33.462460,97.840935,-15.936445
2,3,20,401,0.909754,0.448649,0.006985,-38.337460,101.215935,-10.748945
2,3,21,421,0.885828,0.447672,0.079739,-47.587460,100.778435,-8.686445
2,3,22,441,0.846277,0.447672,0.193021,-57.024960,102.778435,-2.248945
2,3,23,461,0.839442,0.434000,0.309720,-69.587463,95.715935,3.563555
2,3,24,481,0.827235,0.410563,0.355618,-94.087463,79.090935,9.501055
2,3,25,501,0.816492,0.386149,0.426419,-115.274963,70.528435,12.251055
2,3,26,521,0.787195,0.366617,0.499661,-121.399963,60.028439,21.688555
2,3,27,541,0.788172,0.308024,0.565579,-114.149963,47.715939,35.626053
2,3,28,561,0.793543,0.223063,0.618314,-105.399963,37.465939,45.751053
2,3,29,581,0.783289,0.141032,0.666653,-98.962463,26.278439,48.501053
2,3,30,601,0.777430,0.072184,0.694485,-95.774963,10.403438,50.813553
2,3,31,621,0.795008,0.009684,0.708646,-87.337463,-5.159062,50.938553
2,3,32,641,0.800379,-0.024984,0.701810,-89.649963,-27.284061,52.501053
2,3,33,661,0.819910,-0.070394,0.634427,-89.274963,-47.284061,63.438553
2,3,34,681,0.850184,-0.185140,0.562161,-72.712463,-56.596561,66.313553
2,3,35,701,0.834070,-0.288168,0.509915,-58.649960,-58.721561,60.438553
2,3,36,721,0.819910,-0.326254,0.496732,-48.149960,-61.346561,50.813553
2,3,37,741,0.841395,-0.370199,0.503567,-24.024961,-66.909065,48.001053
2,3,38,761,0.889246,-0.450765,0.430814,-3.462461,-77.784065,47.001053
2,3,39,781,0.906336,-0.491293,0.375149,-3.837461,-84.659065,33.251053
2,3,40,801,0.884852,-0.469320,0.342435,-20.337461,-98.346565,12.813555
2,3,41,821,0.879969,-0.400472,0.235013,-36.774960,-118.471565,-3.186445
2,3,42,841,0.870203,-0.343343,0.135892,-41.149960,-131.971558,-6.623945
2,3,43,861,0.896082,-0.359457,-0.034518,-34.087460,-134.159058,-9.123945
2,3,44,881,0.914149,-0.316000,-0.097995,-18.899961,-118.596565,-15.373945
2,3,45,901,0.898524,-0.205160,-0.131686,-14.962461,-119.409065,-16.248945
2,3,46,921,0.893641,-0.132894,-0.217136,-13.837461,-116.909065,-6.686445
2,3,47,941,0.918543,-0.192465,-0.353854,-0.774961,-113.034065,3.188555
2,3,48,961,0.999598,-0.317465,-0.529147,11.912539,-112.534065,5.626055
2,3,49,981,1.055750,-0.363851,-0.681979,10.287539,-98.159065,-3.811445
2,3,50,1001,1.054774,-0.360433,-0.699558,9.537539,-69.471565,-16.373945
2,3,51,1021,1.020594,-0.279379,-0.514011,15.725039,-53.909061,-22.498945
2,3,52,1041,1.013270,-0.259847,-0.496433,18.975039,-63.284061,-19.436445
2,3,53,1061,1.049891,-0.350179,-0.639499,18.225039,-60.971561,-24.748945
2,3,54,1081,1.044520,-0.365316,-0.639987,9.662539,-40.784061,-41.436447
2,3,55,1101,0.977625,-0.241781,-0.503757,12.662539,-26.846561,-49.873947
2,3,56,1121,0.950770,-0.154379,-0.440768,28.475039,-26.034061,-42.936447
2,3,57,1141,0.948328,-0.161703,-0.511081,44.600040,-24.471561,-34.436447
2,3,58,1161,0.977137,-0.219808,-0.562839,43.100040,-21.159061,-34.686447
2,3,59,1181,0.986902,-0.215414,-0.566257,37.975040,-13.971562,-40.811447
2,3,60,1201,0.973719,-0.155355,-0.512546,34.162540,-8.534062,-45.248947
2,3,61,1221,0.965906,-0.120687,-0.488132,33.725040,-5.721562,-47.998947
2,3,62,1241,0.951746,-0.077230,-0.494968,32.037540,-3.659062,-50.561447
2,3,63,1261,0.941492,-0.024496,-0.514987,30.912539,-1.346562,-50.998947
2,3,64,1281,0.937586,0.041422,-0.505710,32.600040,3.903438,-47.873947
2,3,65,1301,0.931727,0.100016,-0.501804,33.100040,7.090938,-43.311447
2,3,66,1321,0.937098,0.125407,-0.509616,28.475039,10.090938,-39.936447
2,3,67,1341,0.943445,0.149821,-0.493015,16.975039,12.653438,-37.123947
2,3,68,1361,0.944422,0.181071,-0.473483,12.037539,14.528438,-32.748947
2,3,69,1381,0.953699,0.201578,-0.488132,12.350039,19.715939,-26.811445
2,3,70,1401,0.960535,0.212809,-0.472995,9.975039,26.528439,-20.311445
2,3,71,1421,0.959559,0.198649,-0.431003,10.037539,29.340939,-12.436445
2,3,72,1441,0.968348,0.168864,-0.409030,8.850039,31.153439,-7.686445
2,3,73,1461,0.964930,0.146891,-0.411472,6.412539,34.903439,-4.936445
2,3,74,1481,0.975184,0.147867,-0.367526,1.475039,38.590939,-3.561445
2,3,75,1501,0.957606,0.156168,-0.297702,-1.899961,39.028439,-1.373945
2,3,76,1521,0.964930,0.150309,-0.248386,-6.899961,38.528439,1.563555
2,3,77,1541,0.956141,0.145426,-0.212253,-7.399961,38.028439,6.126055
2,3,78,1561,0.963465,0.115641,-0.182468,-4.899961,36.340939,10.563555
2,3,79,1581,0.963465,0.092692,-0.144870,-1.649961,34.340939,13.063555
2,3,80,1601,0.955652,0.075602,-0.119479,-0.524961,29.840939,15.188555
2,3,81,1621,0.970789,0.036539,-0.108249,-0.524961,25.903439,16.063555
2,3,82,1641,0.984461,0.021891,-0.076999,-3.274961,24.090939,15.126055
2,3,83,1661,0.973719,0.000895,-0.040378,-2.087461,17.778439,14.626055
2,3,84,1681,0.983973,-0.024984,-0.054050,0.225039,7.528438,14.626055
2,3,85,1701,1.000574,-0.057211,-0.128268,0.850039,-1.909062,12.876055
2,3,86,1721,1.020594,-0.073324,-0.193210,-2.337461,-4.034062,8.751055
2,3,87,1741,1.028406,-0.076254,-0.203952,-4.587461,-2.096562,3.126055
2,3,88,1761,1.025477,-0.061117,-0.211276,-3.087461,0.028438,-0.686445
2,3,89,1781,1.024012,-0.037679,-0.220554,-3.524961,-0.909062,-1.998945
2,3,90,1801,1.025477,-0.026449,-0.219577,-3.337461,-1.034062,-2.061445
2,3,91,1821,1.011317,-0.009359,-0.217624,-0.774961,-1.846562,0.313555
2,3,92,1841,1.022059,-0.016683,-0.224460,1.537539,-1.784062,2.188555
2,3,93,1861,1.024012,-0.021566,-0.234226,0.912539,-1.471562,2.001055
2,3,94,1881,1.018152,-0.019613,-0.226901,-0.712461,-0.409062,-0.061445
2,3,95,1901,1.018641,-0.011312,-0.207858,-1.212461,0.715938,-0.936445
2,3,96,1921,1.006922,-0.001058,-0.189304,1.412539,1.028438,-0.561445
2,3,97,1941,1.013270,-0.022543,-0.185886,3.350039,0.715938,-0.561445
2,3,98,1961,1.004481,-0.024496,-0.192233,1.912539,0.465938,-1.686445
2,3,99,1981,1.005457,-0.012777,-0.180515,-0.837461,-0.221562,-1.998945
2,4,0,0,1.030848,-0.185140,-0.229343,30.787539,-4.471562,-1.936445
2,4,1,21,1.043543,-0.232015,-0.260104,43.287540,-3.596562,-2.373945
2,4,2,41,1.043543,-0.287191,-0.279147,62.225040,0.340938,-0.811445
2,4,3,61,1.036219,-0.353597,-0.270358,90.662537,6.715938,0.501055
2,4,4,81,1.031336,-0.401937,-0.267429,116.975037,10.965938,-6.623945
2,4,5,101,1.055262,-0.389242,-0.299167,123.787537,6.340938,-20.998945
2,4,6,121,1.044520,-0.306722,-0.391940,107.412537,-7.784062,-40.123947
2,4,7,141,1.077723,-0.230551,-0.573093,71.037537,-18.471561,-58.186447
2,4,8,161,1.079676,-0.104574,-0.670261,31.725039,-0.221562,-79.561447
2,4,9,181,1.015223,0.082926,-0.604343,0.225039,22.028439,-91.373947
2,4,10,201,0.976160,0.230387,-0.487155,-17.274961,35.590939,-92.873947
2,4,11,221,0.935145,0.388102,-0.410007,-30.149961,41.090939,-84.998947
2,4,12,241,0.925867,0.520426,-0.371921,-32.149960,49.903439,-67.373947
2,4,13,261,0.919520,0.589274,-0.312839,-27.462461,61.840939,-47.248947
2,4,14,281,0.905848,0.627848,-0.223483,-21.712461,70.653435,-27.498945
2,4,15,301,0.914149,0.629313,-0.148776,-15.337461,77.340935,-8.873945
2,4,16,321,0.946375,0.592203,-0.117038,-16.337461,75.778435,5.563555
2,4,17,341,0.952235,0.522867,-0.131686,-29.087461,76.278435,17.376055
2,4,18,361,0.934656,0.450114,-0.121921,-48.837460,77.278435,27.126055
2,4,19,381,0.922938,0.371989,-0.089206,-66.087463,80.715935,33.751053
2,4,20,401,0.919520,0.321696,-0.027194,-81.524963,83.965935,36.188553
2,4,21,421,0.903895,0.263590,0.031399,-93.212463,84.340935,37.438553
2,4,22,441,0.891199,0.208414,0.092435,-98.274963,87.403435,40.938553
2,4,23,461,0.875574,0.149332,0.168607,-99.274963,90.590935,44.813553
2,4,24,481,0.860926,0.094645,0.251614,-106.899963,90.715935,45.438553
2,4,25,501,0.839442,0.057535,0.361478,-115.024963,88.215935,42.688553
2,4,26,521,0.827723,0.037516,0.457181,-122.337463,78.840935,42.813553
2,4,27,541,0.801844,0.011149,0.531399,-121.462463,65.403435,46.626053
2,4,28,561,0.784266,-0.031332,0.586087,-106.524963,55.090939,58.313553
2,4,29,581,0.788660,-0.130453,0.628079,-79.837463,47.715939,69.188553
2,4,30,601,0.794031,-0.232992,0.672513,-57.462460,34.840939,69.376053
2,4,31,621,0.809168,-0.306722,0.674954,-51.962460,16.590939,63.501053
2,4,32,641,0.824793,-0.367269,0.664212,-60.337460,-7.971562,52.188553
2,4,33,661,0.831141,-0.387777,0.606595,-68.087463,-32.284061,41.688553
2,4,34,681,0.833582,-0.408285,0.532376,-63.212460,-43.221561,34.001053
2,4,35,701,0.852137,-0.419027,0.509427,-60.962460,-49.721561,20.438555
2,4,36,721,0.818934,-0.376058,0.520657,-60.649960,-61.846561,9.251055
2,4,37,741,0.822840,-0.334066,0.499661,-53.962460,-75.971565,6.563555
2,4,38,761,0.844324,-0.324301,0.397122,-47.899960,-98.284065,8.063555
2,4,39,781,0.855555,-0.351644,0.260403,-46.837460,-112.596565,7.938555
2,4,40,801,0.862391,-0.378011,0.149075,-48.462460,-116.221565,1.876055
2,4,41,821,0.879969,-0.380453,0.076810,-41.962460,-117.034065,-3.998945
2,4,42,841,0.908777,-0.376058,-0.008640,-33.087460,-120.221565,-4.248945
2,4,43,861,0.941004,-0.387289,-0.126804,-25.337461,-118.596565,-3.873945
2,4,44,881,0.939051,-0.375082,-0.209323,-22.899961,-102.096565,-6.811445
2,4,45,901,0.912684,-0.314535,-0.146335,-16.962461,-88.909065,-3.623945
2,4,46,921,0.923426,-0.345297,-0.180026,-1.962461,-99.346565,6.188555
2,4,47,941,0.962977,-0.409750,-0.333347,6.475039,-102.659065,8.188555
2,4,48,961,0.979578,-0.453207,-0.462253,2.037539,-95.159065,1.188555
2,4,49,981,1.002039,-0.481527,-0.520358,-10.587461,-75.159065,-14.061445
2,4,50,1001,0.983973,-0.401449,-0.421237,-14.274961,-66.284065,-22.498945
2,4,51,1021,0.977625,-0.331136,-0.445651,-9.337461,-74.346565,-19.123945
2,4,52,1041,0.998621,-0.372640,-0.556491,3.537539,-76.221565,-14.686445
2,4,53,1061,1.042078,-0.469808,-0.697116,7.412539,-66.096565,-20.561445
2,4,54,1081,1.028895,-0.433187,-0.668308,21.100039,-37.471561,-32.123947
2,4,55,1101,0.994227,-0.367758,-0.553561,37.100040,-21.846561,-33.186447
2,4,56,1121,0.997156,-0.370687,-0.556491,33.850040,-21.346561,-36.373947
2,4,57,1141,0.971277,-0.332113,-0.541843,24.412539,-18.221561,-44.248947
2,4,58,1161,0.940516,-0.277426,-0.499362,24.225039,-15.284062,-46.811447
2,4,59,1181,0.937098,-0.257894,-0.483737,32.350040,-11.784062,-46.623947
2,4,60,1201,0.959070,-0.240804,-0.481296,34.475040,-6.721562,-49.936447
2,4,61,1221,0.930262,-0.174398,-0.448093,33.662540,-3.409062,-54.123947
2,4,62,1241,0.924891,-0.109945,-0.453952,35.725040,-3.159062,-50.186447
2,4,63,1261,0.924891,-0.070883,-0.441257,38.412540,-0.159062,-47.123947
2,4,64,1281,0.914637,-0.030355,-0.432956,41.287540,1.590938,-42.811447
2,4,65,1301,0.920496,-0.015707,-0.420749,45.912540,3.590938,-37.748947
2,4,66,1321,0.935633,-0.012777,-0.423190,47.350040,3.778438,-33.123947
2,4,67,1341,0.953699,-0.023519,-0.426120,44.412540,6.278438,-30.873945
2,4,68,1361,0.956141,-0.022054,-0.426608,37.975040,6.903438,-31.873945
2,4,69,1381,0.964442,-0.032308,-0.436374,29.662539,8.215938,-34.498947
2,4,70,1401,0.965418,-0.017660,-0.438815,24.912539,7.965938,-34.623947
2,4,71,1421,0.974207,-0.010336,-0.445651,24.162539,9.403438,-32.186447
2,4,72,1441,0.986414,-0.020101,-0.449069,23.662539,13.653438,-31.498945
2,4,73,1461,0.969813,0.021403,-0.414401,19.412539,16.215939,-31.311445
2,4,74,1481,0.968348,0.047770,-0.397800,14.287539,16.590939,-30.061445
2,4,75,1501,0.961512,0.088785,-0.388034,9.912539,19.028439,-27.248945
2,4,76,1521,0.964442,0.108317,-0.367526,10.662539,21.403439,-20.186445
2,4,77,1541,0.972742,0.093180,-0.332370,12.537539,25.090939,-15.623945
2,4,78,1561,0.961024,0.090739,-0.284030,14.350039,28.465939,-13.248945
2,4,79,1581,0.961512,0.080485,-0.249851,16.975039,27.403439,-9.811445
2,4,80,1601,0.973719,0.066324,-0.247409,17.100039,23.403439,-5.998945
2,4,81,1621,0.986414,0.053141,-0.245944,12.787539,21.528439,-2.561445
2,4,82,1641,0.979578,0.045817,-0.232761,5.225039,19.653439,-0.311445
2,4,83,1661,0.984461,0.022867,-0.209323,0.100039,18.778439,0.688555
2,4,84,1681,0.983485,0.012125,-0.191257,1.850039,15.840938,2.251055
2,4,85,1701,0.989832,-0.003500,-0.180026,3.412539,14.528438,2.376055
2,4,86,1721,0.974207,0.004313,-0.146823,3.100039,11.590938,2.376055
2,4,87,1741,0.973719,0.005778,-0.149753,2.475039,4.715938,4.876055
2,4,88,1761,0.985438,-0.001547,-0.182468,-2.087461,0.465938,6.313555
2,4,89,1781,0.984949,-0.003011,-0.187351,-4.087461,0.340938,6.938555
2,4,90,1801,0.987391,-0.002523,-0.168796,-2.899961,0.278438,7.501055
2,4,91,1821,0.987879,-0.006918,-0.176120,-2.524961,-2.096562,7.188555
2,4,92,1841,0.991297,-0.015219,-0.196628,-2.462461,-4.034062,8.563555
2,4,93,1861,1.001551,-0.042562,-0.216647,0.975039,-4.721562,9.563555
2,4,94,1881,1.008875,-0.063070,-0.228366,1.225039,-4.409062,7.751055
2,4,95,1901,1.007899,-0.061605,-0.245456,-1.024961,-5.346562,5.938555
2,4,96,1921,1.009363,-0.057211,-0.270358,-4.274961,-6.721562,4.188555
2,4,97,1941,1.018152,-0.062582,-0.303073,-2.587461,-5.034062,4.626055
2,4,98,1961,1.024012,-0.079183,-0.297702,-0.524961,-0.909062,5.313555
2,4,99,1981,1.022059,-0.097738,-0.290866,0.850039,1.153438,5.126055
2,5,0,0,1.029383,-0.231039,-0.238132,15.725039,1.340938,-5.873945
2,5,1,21,1.024012,-0.230551,-0.243991,16.975039,-0.284062,-9.623945
2,5,2,41,1.019129,-0.239828,-0.237643,23.787539,-0.409062,-11.748945
2,5,3,61,1.024988,-0.272543,-0.234714,31.850039,-0.096562,-14.248945
2,5,4,81,1.032801,-0.289144,-0.265476,36.225040,-1.659062,-19.561445
2,5,5,101,1.043543,-0.287679,-0.310886,40.475040,-4.471562,-27.436445
2,5,6,121,1.045008,-0.268636,-0.402194,41.475040,-2.784062,-35.311447
2,5,7,141,1.072840,-0.230062,-0.496921,39.350040,1.215938,-43.061447
2,5,8,161,1.074305,-0.180746,-0.550632,36.287540,7.153438,-52.873947
2,5,9,181,1.055750,-0.112875,-0.580417,34.100040,15.653438,-60.436447
2,5,10,201,1.054774,-0.023031,-0.597507,42.162540,28.840939,-67.561447
2,5,11,221,1.023035,0.079508,-0.590671,53.537540,52.653439,-73.623947
2,5,12,241,0.981043,0.192301,-0.492038,52.162540,68.903435,-72.061447
2,5,13,261,0.959070,0.250895,-0.374851,40.850040,73.403435,-69.811447
2,5,14,281,0.941004,0.282145,-0.284030,27.037539,75.153435,-66.623947
2,5,15,301,0.932215,0.323160,-0.199558,15.162539,73.278435,-61.811447
2,5,16,321,0.942469,0.342203,-0.177585,4.662539,72.965935,-54.061447
2,5,17,341,0.908777,0.388590,-0.082370,-0.837461,78.465935,-47.686447
2,5,18,361,0.895106,0.415446,-0.005710,-3.024961,75.465935,-35.186447
2,5,19,381,0.909754,0.413004,0.017239,-11.337461,70.028435,-24.561445
2,5,20,401,0.903406,0.403727,0.069485,-18.962461,69.965935,-17.623945
2,5,21,421,0.893152,0.389567,0.134427,-19.524961,67.590935,-8.686445
2,5,22,441,0.909266,0.368571,0.182767,-18.462461,63.028439,-0.936445
2,5,23,461,0.924891,0.351481,0.177884,-28.087461,53.590939,3.563555
2,5,24,481,0.920985,0.346110,0.185696,-40.462460,49.778439,7.813555
2,5,25,501,0.911219,0.338297,0.239896,-44.774960,48.903439,11.563555
2,5,26,521,0.904383,0.334879,0.286282,-50.712460,44.715939,11.876055
2,5,27,541,0.899500,0.356852,0.310696,-66.149963,34.153439,10.001055
2,5,28,561,0.896570,0.409586,0.313138,-83.962463,22.340939,11.126055
2,5,29,581,0.898524,0.443278,0.262845,-98.712463,12.090938,19.688555
2,5,30,601,0.890711,0.431071,0.245267,-104.899963,9.153438,31.876055
2,5,31,621,0.885828,0.377848,0.228177,-106.274963,5.340938,43.376053
2,5,32,641,0.885828,0.311442,0.219388,-107.399963,5.965938,51.563553
2,5,33,661,0.878504,0.262614,0.239896,-105.962463,4.840938,60.126053
2,5,34,681,0.877039,0.202067,0.236478,-118.712463,-1.784062,68.251053
2,5,35,701,0.894617,0.140543,0.184720,-141.837463,-13.034062,75.063553
2,5,36,721,0.890711,0.064860,0.174466,-163.087463,-18.221561,78.001053
2,5,37,741,0.876063,-0.015219,0.198392,-177.462463,-23.721561,80.501053
2,5,38,761,0.861902,-0.110433,0.219388,-163.899963,-25.346561,87.376053
2,5,39,781,0.827235,-0.269125,0.292142,-98.587463,-20.159061,104.501053
2,5,40,801,0.904871,-0.516683,0.299954,-43.524960,-15.534062,106.251053
2,5,41,821,0.940027,-0.664144,0.274564,-37.399960,-20.534061,89.126053
2,5,42,841,0.934168,-0.688558,0.305325,-72.149963,-30.721561,50.876053
2,5,43,861,0.897059,-0.568441,0.349759,-93.337463,-46.221561,23.188555
2,5,44,881,0.869227,-0.476156,0.395169,-73.962463,-53.846561,18.626055
2,5,45,901,0.887781,-0.500082,0.333157,-50.712460,-69.971565,19.813555
2,5,46,921,0.892176,-0.531332,0.208646,-44.337460,-82.221565,14.376055
2,5,47,941,0.899012,-0.548422,0.105130,-42.149960,-90.909065,3.563555
2,5,48,961,0.885340,-0.494222,0.051419,-30.149961,-89.721565,-2.873945
2,5,49,981,0.879969,-0.465902,0.023587,-1.462461,-87.596565,0.251055
2,5,50,1001,0.897547,-0.499105,-0.047702,23.537539,-88.721565,5.376055
2,5,51,1021,0.925867,-0.549398,-0.137058,31.350039,-92.909065,2.313555
2,5,52,1041,0.942469,-0.550375,-0.209811,19.850039,-90.909065,-7.373945
2,5,53,1061,0.920008,-0.533773,-0.232272,9.850039,-95.096565,-18.748945
2,5,54,1081,0.931238,-0.527914,-0.294772,9.975039,-97.284065,-24.748945
2,5,55,1101,0.934656,-0.513265,-0.384616,16.475039,-93.846565,-31.123945
2,5,56,1121,0.947352,-0.498129,-0.471530,17.537539,-90.409065,-37.436447
2,5,57,1141,0.947840,-0.466390,-0.525729,22.350039,-81.471565,-40.623947
2,5,58,1161,0.955164,-0.471761,-0.542819,34.912540,-70.784065,-44.248947
2,5,59,1181,0.944910,-0.454183,-0.539890,32.287540,-65.221565,-50.311447
2,5,60,1201,0.952723,-0.419515,-0.575046,31.412539,-64.659065,-54.686447
2,5,61,1221,0.947840,-0.377523,-0.633640,27.850039,-61.221561,-60.311447
2,5,62,1241,0.941492,-0.336019,-0.674655,28.162539,-52.221561,-64.061447
2,5,63,1261,0.940027,-0.305746,-0.683933,29.475039,-39.909061,-67.561447
2,5,64,1281,0.929285,-0.253988,-0.663425,32.600040,-29.221561,-71.123947
2,5,65,1301,0.924891,-0.192953,-0.651706,36.287540,-22.346561,-71.373947
2,5,66,1321,0.925379,-0.165121,-0.665866,35.412540,-19.096561,-69.623947
2,5,67,1341,0.924891,-0.134847,-0.666354,33.412540,-8.784062,-69.061447
2,5,68,1361,0.895106,-0.075277,-0.613132,35.975040,0.028438,-68.186447
2,5,69,1381,0.879969,-0.027426,-0.551608,40.162540,3.653438,-64.061447
2,5,70,1401,0.882899,-0.008383,-0.515964,40.662540,4.903438,-60.373947
2,5,71,1421,0.883387,0.028239,-0.498386,36.537540,5.215938,-59.498947
2,5,72,1441,0.882899,0.066324,-0.477878,34.912540,5.653438,-56.873947
2,5,73,1461,0.886317,0.093180,-0.492038,34.600040,5.090938,-52.998947
2,5,74,1481,0.901453,0.120035,-0.512058,29.350039,4.903438,-50.186447
2,5,75,1501,0.904383,0.158121,-0.516940,23.225039,5.153438,-46.436447
2,5,76,1521,0.911219,0.193278,-0.514011,22.037539,9.840938,-42.123947
2,5,77,1541,0.918543,0.211832,-0.493991,26.225039,17.028439,-35.186447
2,5,78,1561,0.922449,0.200602,-0.500827,30.725039,21.028439,-27.686445
2,5,79,1581,0.941492,0.162028,-0.493015,29.037539,24.278439,-21.498945
2,5,80,1601,0.938563,0.147379,-0.464206,25.100039,27.778439,-18.623945
2,5,81,1621,0.946375,0.144938,-0.436374,20.037539,30.653439,-16.311445
2,5,82,1641,0.938563,0.160563,-0.386569,13.725039,32.403439,-13.248945
2,5,83,1661,0.936121,0.161539,-0.342136,8.162539,30.840939,-10.436445
2,5,84,1681,0.931727,0.161051,-0.298679,3.975039,28.153439,-7.311445
2,5,85,1701,0.939539,0.144938,-0.273288,3.412539,25.278439,-2.186445
2,5,86,1721,0.943445,0.128824,-0.246433,3.350039,23.153439,1.126055
2,5,87,1741,0.946375,0.119059,-0.222995,1.600039,19.340939,3.313555
2,5,88,1761,0.943445,0.116617,-0.203952,1.037539,15.153438,5.876055
2,5,89,1781,0.948817,0.103922,-0.192233,-1.337461,11.090938,8.938555
2,5,90,1801,0.951258,0.076578,-0.186862,-3.462461,7.028438,10.001055
2,5,91,1821,0.956629,0.059000,-0.189304,-4.399961,2.028438,11.001055
2,5,92,1841,0.964930,0.038004,-0.213718,-2.899961,-2.909062,12.376055
2,5,93,1861,0.974207,0.012614,-0.245456,-1.524961,-5.971562,12.126055
2,5,94,1881,0.990320,-0.026449,-0.299655,-1.837461,-7.221562,9.501055
2,5,95,1901,0.995203,-0.024496,-0.336765,-4.774961,-6.659062,5.376055
2,5,96,1921,1.003504,-0.009359,-0.362155,-6.274961,-7.346562,4.438555
2,5,97,1941,1.002039,-0.005941,-0.384616,-5.462461,-5.471562,4.938555
2,5,98,1961,1.004969,-0.012289,-0.384128,-4.587461,-2.721562,5.251055
2,5,99,1981,0.994227,-0.013265,-0.371433,-1.837461,0.215938,5.688555
2,6,0,0,0.985926,-0.161215,-0.268893,26.350039,1.840938,2.626055
2,6,1,21,1.003504,-0.210531,-0.274265,40.850040,4.840938,2.751055
2,6,2,41,1.019617,-0.258383,-0.273288,51.850040,4.090938,2.313555
2,6,3,61,1.037684,-0.324789,-0.300632,61.100040,0.778438,-2.873945
2,6,4,81,1.044031,-0.360433,-0.347018,64.100037,0.090938,-15.561445
2,6,5,101,1.041102,-0.339437,-0.400241,57.725040,-2.659062,-33.686447
2,6,6,121,1.022059,-0.268148,-0.454929,39.600040,-7.221562,-52.498947
2,6,7,141,1.034754,-0.204672,-0.492526,22.912539,-10.659062,-65.998947
2,6,8,161,1.023524,-0.122152,-0.562839,13.100039,-6.784062,-79.186447
2,6,9,181,1.017664,-0.026937,-0.624362,13.412539,4.590938,-88.061447
2,6,10,201,0.992274,0.094156,-0.636569,22.975039,20.653439,-92.248947
2,6,11,221,0.950281,0.194742,-0.577976,43.662540,45.090939,-92.061447
2,6,12,241,0.923914,0.268961,-0.515476,63.350040,56.278439,-84.123947
2,6,13,261,0.948328,0.303629,-0.510104,61.850040,57.215939,-80.998947
2,6,14,281,0.941004,0.348551,-0.546237,34.537540,58.465939,-77.748947
2,6,15,301,0.928309,0.417887,-0.498874,1.412539,63.653439,-72.311447
2,6,16,321,0.899500,0.484293,-0.404636,-20.274961,69.403435,-62.561447
2,6,17,341,0.897547,0.503824,-0.313327,-24.087461,75.340935,-50.498947
2,6,18,361,0.884363,0.516032,-0.285007,-28.587461,77.965935,-43.061447
2,6,19,381,0.866785,0.532145,-0.258151,-36.962460,82.778435,-31.873945
2,6,20,401,0.848719,0.548258,-0.174655,-41.962460,90.090935,-20.311445
2,6,21,421,0.849695,0.533121,-0.084323,-39.024960,95.028435,-6.373945
2,6,22,441,0.845789,0.495524,0.002103,-40.337460,99.590935,6.501055
2,6,23,461,0.848719,0.460856,0.065579,-50.712460,99.465935,16.313555
2,6,24,481,0.836512,0.439371,0.186673,-56.899960,96.090935,26.313555
2,6,25,501,0.837488,0.399821,0.254056,-63.274960,86.278435,34.126053
2,6,26,521,0.829188,0.373453,0.326321,-73.212463,77.278435,32.751053
2,6,27,541,0.824793,0.379313,0.379056,-95.462463,59.278439,28.126055
2,6,28,561,0.821375,0.407633,0.406399,-120.337463,44.465939,25.876055
2,6,29,581,0.801356,0.442789,0.448392,-128.087463,32.590939,30.688555
2,6,30,601,0.805262,0.434489,0.458157,-129.337463,18.465939,43.751053
2,6,31,621,0.803309,0.398844,0.435208,-130.462463,8.465938,58.251053
2,6,32,641,0.799402,0.340250,0.421536,-128.274963,2.528438,72.876053
2,6,33,661,0.792078,0.261637,0.432767,-120.274963,-3.096562,84.876053
2,6,34,681,0.793543,0.177653,0.427884,-118.462463,-13.659062,92.251053
2,6,35,701,0.800379,0.097574,0.409817,-118.462463,-23.284061,99.251053
2,6,36,721,0.799891,0.011637,0.402005,-108.774963,-29.784061,113.626053
2,6,37,741,0.801844,-0.146078,0.342435,-79.962463,-33.096561,132.188553
2,6,38,761,0.829676,-0.386801,0.304837,-53.962460,-32.471561,130.126053
2,6,39,781,0.849207,-0.531820,0.309720,-50.712460,-31.659061,107.876053
2,6,40,801,0.854090,-0.551840,0.356107,-57.149960,-43.034061,78.688553
2,6,41,821,0.860926,-0.499593,0.346341,-68.899963,-67.096565,60.063553
2,6,42,841,0.867274,-0.493734,0.264310,-70.212463,-83.471565,46.938553
2,6,43,861,0.866785,-0.494222,0.193997,-55.837460,-91.346565,42.813553
2,6,44,881,0.881922,-0.528402,0.126126,-40.087460,-101.409065,42.001053
2,6,45,901,0.901942,-0.589926,-0.012058,-31.774961,-106.409065,38.313553
2,6,46,921,0.930262,-0.682699,-0.118991,-16.712461,-96.096565,26.938555
2,6,47,941,0.955652,-0.690023,-0.139499,-9.774961,-85.409065,13.563555
2,6,48,961,0.932215,-0.611898,-0.084323,-3.399961,-89.846565,5.813555
2,6,49,981,0.940516,-0.588461,-0.157565,-10.149961,-110.721565,0.688555
2,6,50,1001,0.938074,-0.597738,-0.276218,-15.962461,-114.909065,-8.811445
2,6,51,1021,0.948817,-0.612386,-0.376315,-16.649961,-108.159065,-24.936445
2,6,52,1041,0.944910,-0.533285,-0.371433,-10.962461,-97.221565,-40.811447
2,6,53,1061,0.923914,-0.415121,-0.354831,-14.587461,-99.221565,-46.748947
2,6,54,1081,0.917567,-0.339437,-0.432956,-21.087461,-105.721565,-46.498947
2,6,55,1101,0.917078,-0.283773,-0.529147,-12.274961,-100.346565,-41.186447
2,6,56,1121,0.917078,-0.273519,-0.601901,-0.149961,-84.846565,-36.373947
2,6,57,1141,0.916590,-0.269125,-0.649265,-1.149961,-67.471565,-36.436447
2,6,58,1161,0.921473,-0.235922,-0.631686,-0.712461,-48.409061,-37.186447
2,6,59,1181,0.906336,-0.184652,-0.571628,5.537539,-36.784061,-32.123947
2,6,60,1201,0.920496,-0.220297,-0.581882,14.412539,-34.596561,-25.873945
2,6,61,1221,0.934168,-0.274008,-0.609226,19.037539,-27.721561,-27.373945
2,6,62,1241,0.920985,-0.287679,-0.612155,26.287539,-20.221561,-30.186445
2,6,63,1261,0.936610,-0.285726,-0.614597,31.725039,-14.909062,-32.373947
2,6,64,1281,0.930750,-0.279867,-0.586276,24.225039,-10.034062,-37.186447
2,6,65,1301,0.915613,-0.276449,-0.556979,19.850039,-7.784062,-40.748947
2,6,66,1321,0.912684,-0.276449,-0.545749,21.662539,-6.471562,-42.936447
2,6,67,1341,0.908289,-0.255941,-0.553073,23.975039,-4.534062,-45.498947
2,6,68,1361,0.902430,-0.230062,-0.536472,24.037539,-2.471562,-47.373947
2,6,69,1381,0.901942,-0.207601,-0.522311,23.225039,-0.346562,-49.561447
2,6,70,1401,0.895594,-0.170004,-0.520847,22.850039,-0.471562,-52.061447
2,6,71,1421,0.904871,-0.138754,-0.524753,21.912539,1.215938,-53.936447
2,6,72,1441,0.893641,-0.081136,-0.503757,21.412539,2.590938,-54.436447
2,6,73,1461,0.895594,-0.040121,-0.494479,20.350039,3.215938,-53.936447
2,6,74,1481,0.889246,0.001383,-0.500339,19.037539,5.340938,-52.936447
2,6,75,1501,0.888758,0.039469,-0.500827,19.537539,6.590938,-50.686447
2,6,76,1521,0.899012,0.082438,-0.503757,16.350039,6.403438,-45.936447
2,6,77,1541,0.902430,0.123453,-0.504733,12.475039,8.715938,-41.373947
2,6,78,1561,0.902430,0.155192,-0.491550,10.412539,11.340938,-35.873947
2,6,79,1581,0.898524,0.176676,-0.470065,9.912539,13.340938,-28.311445
2,6,80,1601,0.902430,0.164469,-0.455905,10.287539,15.090938,-21.061445
2,6,81,1621,0.918055,0.138102,-0.444186,11.475039,17.465939,-13.873945
2,6,82,1641,0.929774,0.110758,-0.429538,11.725039,19.465939,-9.373945
2,6,83,1661,0.931727,0.089274,-0.393405,10.912539,20.590939,-6.123945
2,6,84,1681,0.924402,0.082926,-0.364108,9.600039,18.278439,-2.373945
2,6,85,1701,0.927820,0.053629,-0.347995,7.975039,15.215938,1.501055
2,6,86,1721,0.935633,0.021891,-0.333835,5.662539,12.278438,3.876055
2,6,87,1741,0.937586,0.000895,-0.325534,4.100039,8.903438,4.438555
2,6,88,1761,0.941981,-0.018148,-0.327487,1.662539,4.778438,4.001055
2,6,89,1781,0.950770,-0.035238,-0.340183,0.100039,3.028438,3.251055
2,6,90,1801,0.951746,-0.046957,-0.345065,0.912539,2.028438,2.876055
2,6,91,1821,0.959559,-0.067953,-0.347507,2.100039,0.403438,1.501055
2,6,92,1841,0.961024,-0.067465,-0.357272,1.162539,-1.534062,-1.123945
2,6,93,1861,0.955164,-0.045980,-0.377292,-0.274961,-3.784062,-2.123945
2,6,94,1881,0.961024,-0.034750,-0.397800,-0.962461,-4.471562,-1.936445
2,6,95,1901,0.956629,-0.028890,-0.398288,-0.337461,-3.909062,-1.873945
2,6,96,1921,0.956629,-0.027426,-0.411960,-0.462461,-3.971562,-1.686445
2,6,97,1941,0.962000,-0.027426,-0.424655,0.162539,-2.096562,-2.686445
2,6,98,1961,0.960047,-0.015219,-0.410983,1.787539,-0.534062,-2.311445
2,6,99,1981,0.962000,-0.018636,-0.409518,3.537539,0.215938,-1.186445
2,7,0,0,0.994715,-0.189047,-0.426608,16.475039,3.340938,4.376055
2,7,1,21,1.008875,-0.282797,-0.430515,28.475039,8.340938,2.751055
2,7,2,41,1.025965,-0.363363,-0.454440,46.850040,14.653438,-0.498945
2,7,3,61,1.029383,-0.420980,-0.462253,54.475040,16.403439,-9.561445
2,7,4,81,1.027918,-0.424886,-0.497897,45.975040,11.528438,-26.748945
2,7,5,101,1.017176,-0.361410,-0.516452,27.912539,11.465938,-45.061447
2,7,6,121,0.988367,-0.276937,-0.498386,16.537539,9.903438,-57.936447
2,7,7,141,0.970789,-0.198812,-0.487155,14.975039,12.590938,-67.623947
2,7,8,161,0.946375,-0.114828,-0.437351,16.412539,19.715939,-76.061447
2,7,9,181,0.913172,-0.014730,-0.370944,22.287539,24.090939,-81.186447
2,7,10,201,0.897547,0.051188,-0.346042,32.162540,23.028439,-80.123947
2,7,11,221,0.903406,0.104899,-0.353366,34.850040,22.903439,-78.186447
2,7,12,241,0.913172,0.134196,-0.352878,32.350040,24.153439,-76.186447
2,7,13,261,0.915613,0.146403,-0.352878,29.912539,22.903439,-75.811447
2,7,14,281,0.917078,0.163981,-0.346042,31.162539,22.528439,-74.248947
2,7,15,301,0.926356,0.207926,-0.352878,34.475040,23.840939,-72.936447
2,7,16,321,0.914637,0.256266,-0.392429,37.475040,20.840939,-66.186447
2,7,17,341,0.938074,0.276285,-0.442722,41.725040,21.090939,-64.186447
2,7,18,361,0.952235,0.329020,-0.524753,33.725040,20.778439,-73.623947
2,7,19,381,0.941981,0.415446,-0.555515,25.475039,25.215939,-73.873947
2,7,20,401,0.918543,0.509196,-0.555026,14.725039,32.278439,-67.186447
2,7,21,421,0.895594,0.576090,-0.545261,3.912539,40.340939,-54.686447
2,7,22,441,0.879969,0.632242,-0.509128,-10.274961,48.965939,-42.936447
2,7,23,461,0.861902,0.686930,-0.462741,-21.274961,56.840939,-26.248945
2,7,24,481,0.853113,0.689860,-0.385104,-28.399961,66.465935,-10.186445
2,7,25,501,0.847254,0.655192,-0.295749,-33.587460,71.840935,4.313555
2,7,26,521,0.849695,0.607340,-0.209323,-36.899960,74.340935,17.751055
2,7,27,541,0.850184,0.559489,-0.170749,-47.337460,74.153435,29.063555
2,7,28,561,0.853113,0.507242,-0.111179,-59.337460,72.965935,37.626053
2,7,29,581,0.852137,0.465250,-0.069186,-74.274963,69.090935,43.938553
2,7,30,601,0.853602,0.428629,-0.021335,-88.024963,66.965935,46.626053
2,7,31,621,0.855555,0.388590,0.043118,-103.274963,62.903439,48.376053
2,7,32,641,0.850184,0.363199,0.112942,-109.649963,61.090939,50.876053
2,7,33,661,0.846766,0.340739,0.165189,-110.712463,54.903439,55.376053
2,7,34,681,0.848231,0.303141,0.203274,-113.837463,48.715939,58.563553
2,7,35,701,0.849207,0.267985,0.246732,-123.274963,43.403439,57.501053
2,7,36,721,0.837488,0.254313,0.291653,-134.087463,33.278439,58.126053
2,7,37,741,0.834559,0.223063,0.335599,-141.774963,22.403439,62.751053
2,7,38,761,0.831629,0.168864,0.397122,-137.087463,13.090938,74.313553
2,7,39,781,0.841883,0.070231,0.420071,-118.774963,2.215938,86.813553
2,7,40,801,0.863367,-0.045980,0.423001,-95.399963,-6.909062,93.501053
2,7,41,821,0.894129,-0.175375,0.386868,-66.524963,-18.971561,95.001053
2,7,42,841,0.933192,-0.337972,0.323392,-55.087460,-29.284061,87.501053
2,7,43,861,0.965906,-0.452230,0.251126,-60.837460,-39.221561,67.938553
2,7,44,881,0.977625,-0.465902,0.208157,-61.462460,-45.659061,50.126053
2,7,45,901,0.980555,-0.434652,0.216458,-59.087460,-49.971561,33.813553
2,7,46,921,0.952723,-0.337484,0.234036,-63.774960,-58.034061,19.563555
2,7,47,941,0.921961,-0.234457,0.218899,-69.212463,-71.721565,9.438555
2,7,48,961,0.916590,-0.167074,0.158841,-76.399963,-92.221565,6.126055
2,7,49,981,0.925379,-0.152914,0.025540,-66.462463,-100.346565,12.313555
2,7,50,1001,0.946375,-0.201254,-0.096530,-43.212460,-90.471565,19.126055
2,7,51,1021,0.937586,-0.204183,-0.075534,-18.962461,-73.159065,23.251055
2,7,52,1041,0.906824,-0.196859,0.022610,6.975039,-69.909065,30.813555
2,7,53,1061,0.944910,-0.277914,-0.106296,19.725039,-84.784065,40.313553
2,7,54,1081,0.994715,-0.356527,-0.249362,9.537539,-88.159065,39.063553
2,7,55,1101,0.982996,-0.388265,-0.305026,-3.587461,-85.534065,30.126055
2,7,56,1121,0.951258,-0.407797,-0.306979,-1.399961,-74.284065,23.001055
2,7,57,1141,0.946375,-0.452230,-0.252292,13.787539,-65.846565,14.813555
2,7,58,1161,0.954188,-0.475668,-0.337741,17.037539,-79.284065,5.938555
2,7,59,1181,0.995692,-0.455648,-0.486667,4.475039,-87.471565,-2.498945
2,7,60,1201,0.985438,-0.450765,-0.560886,-9.337461,-83.346565,-14.436445
2,7,61,1221,0.973231,-0.451254,-0.567722,-5.712461,-65.096565,-24.811445
2,7,62,1241,0.950281,-0.407797,-0.512546,14.162539,-54.471561,-27.561445
2,7,63,1261,0.968348,-0.393148,-0.550143,29.537539,-53.846561,-28.623945
2,7,64,1281,0.985926,-0.403402,-0.626804,23.287539,-53.159061,-35.311447
2,7,65,1301,0.968836,-0.368734,-0.634128,11.100039,-47.284061,-45.623947
2,7,66,1321,0.919520,-0.289633,-0.561862,15.225039,-36.909061,-49.373947
2,7,67,1341,0.900477,-0.282308,-0.532077,28.600039,-30.409061,-48.873947
2,7,68,1361,0.907801,-0.290609,-0.558444,39.725040,-27.346561,-50.686447
2,7,69,1381,0.908777,-0.277914,-0.593601,42.850040,-24.221561,-56.123947
2,7,70,1401,0.909266,-0.229086,-0.606296,41.162540,-22.346561,-60.873947
2,7,71,1421,0.900477,-0.171957,-0.617038,38.600040,-18.471561,-63.498947
2,7,72,1441,0.889246,-0.114340,-0.609714,35.225040,-14.409062,-64.623947
2,7,73,1461,0.875086,-0.058187,-0.600925,31.412539,-12.159062,-64.436447
2,7,74,1481,0.873133,-0.013754,-0.601413,27.787539,-8.846562,-63.498947
2,7,75,1501,0.870203,0.032633,-0.597507,30.787539,-3.846562,-60.998947
2,7,76,1521,0.875086,0.061442,-0.594577,37.287540,2.778438,-55.311447
2,7,77,1541,0.877527,0.082926,-0.742526,43.850040,7.278438,-48.873947
2,7,78,1561,0.899012,0.068278,-0.650729,41.975040,13.028438,-45.436447
2,7,79,1581,0.904383,0.082926,-0.624851,35.537540,17.590939,-43.811447
2,7,80,1601,0.910731,0.110270,-0.610202,29.475039,19.465939,-41.436447
2,7,81,1621,0.916590,0.138102,-0.628268,23.350039,23.653439,-38.998947
2,7,82,1641,0.918055,0.163981,-0.609226,18.600039,28.840939,-33.186447
2,7,83,1661,0.917078,0.163981,-0.577487,20.350039,32.465939,-26.936445
2,7,84,1681,0.920985,0.154215,-0.533542,26.100039,37.403439,-19.186445
2,7,85,1701,0.916102,0.155680,-0.473972,31.912539,43.028439,-12.873945
2,7,86,1721,0.911219,0.146403,-0.404147,35.662540,46.465939,-6.936445
2,7,87,1741,0.914637,0.115641,-0.345554,34.100040,47.778439,-2.936445
2,7,88,1761,0.919031,0.089762,-0.300143,28.350039,45.465939,-0.811445
2,7,89,1781,0.939539,0.041910,-0.278171,21.162539,37.153439,0.063555
2,7,90,1801,0.956629,0.024332,-0.261081,13.912539,31.340939,-1.811445
2,7,91,1821,0.948328,0.038981,-0.227390,7.787539,27.028439,-3.873945
2,7,92,1841,0.937098,0.053141,-0.191257,0.600039,20.528439,-6.873945
2,7,93,1861,0.921473,0.086832,-0.172214,-5.024961,13.403438,-7.623945
2,7,94,1881,0.925867,0.108317,-0.166354,-5.774961,7.403438,-4.561445
2,7,95,1901,0.937098,0.108805,-0.166354,-3.149961,3.340938,0.313555
2,7,96,1921,0.943934,0.090739,-0.190768,-0.649961,-1.409062,5.188555
2,7,97,1941,0.955652,0.066813,-0.228366,-1.899961,-6.096562,7.313555
2,7,98,1961,0.965418,0.041910,-0.266452,-2.462461,-8.346562,8.813555
2,7,99,1981,0.983973,0.015543,-0.304538,-3.149961,-8.971562,8.626055
2,8,0,0,1.007899,-0.161703,-0.328464,15.475039,3.528438,-11.436445
2,8,1,21,1.017176,-0.193929,-0.357761,20.225039,3.840938,-14.811445
2,8,2,41,1.026453,-0.211996,-0.387546,21.287539,4.215938,-22.248945
2,8,3,61,1.033289,-0.187582,-0.436374,16.662539,2.840938,-30.686445
2,8,4,81,1.022059,-0.153402,-0.438327,17.037539,5.465938,-37.186447
2,8,5,101,1.007899,-0.106527,-0.451999,18.850039,7.653438,-42.873947
2,8,6,121,1.004481,-0.045980,-0.468601,18.725039,9.778438,-46.936447
2,8,7,141,1.005457,-0.008383,-0.477878,24.037539,15.403438,-47.498947
2,8,8,161,1.013758,-0.001058,-0.497409,34.912540,26.715939,-46.248947
2,8,9,181,1.001063,-0.003011,-0.472018,44.287540,38.840939,-47.123947
2,8,10,201,0.993738,0.006266,-0.444675,52.662540,44.715939,-47.248947
2,8,11,221,0.993738,-0.000570,-0.438327,54.725040,49.153439,-50.436447
2,8,12,241,0.971766,0.034586,-0.369968,54.037540,56.528439,-56.373947
2,8,13,261,0.949793,0.083414,-0.309909,56.850040,56.528439,-58.123947
2,8,14,281,0.951258,0.117594,-0.312839,57.787540,55.090939,-59.498947
2,8,15,301,0.951746,0.162028,-0.311862,50.787540,51.403439,-62.748947
2,8,16,321,0.946863,0.213785,-0.331393,39.537540,49.153439,-63.186447
2,8,17,341,0.947840,0.249918,-0.327487,34.850040,51.090939,-62.748947
2,8,18,361,0.944910,0.319742,-0.317233,26.537539,53.465939,-63.311447
2,8,19,381,0.914637,0.429606,-0.297214,17.662539,57.778439,-59.998947
2,8,20,401,0.897059,0.505778,-0.276218,9.975039,61.715939,-53.123947
2,8,21,421,0.875574,0.576578,-0.236179,-3.087461,64.903435,-43.248947
2,8,22,441,0.859949,0.641520,-0.157077,-18.087461,67.590935,-34.936447
2,8,23,461,0.843348,0.683024,-0.093601,-35.212460,65.778435,-24.123945
2,8,24,481,0.845301,0.694254,-0.021335,-50.712460,65.840935,-13.373945
2,8,25,501,0.829676,0.704508,0.039700,-63.274960,65.153435,-2.436445
2,8,26,521,0.827723,0.691324,0.083157,-78.087463,57.590939,11.251055
2,8,27,541,0.837977,0.641520,0.084622,-96.587463,48.528439,27.126055
2,8,28,561,0.844324,0.552653,0.110989,-110.649963,48.965939,41.876053
2,8,29,581,0.846766,0.454020,0.173001,-118.649963,47.965939,56.626053
2,8,30,601,0.866297,0.353922,0.217435,-124.712463,45.090939,66.876053
2,8,31,621,0.871180,0.253336,0.247708,-133.462463,37.653439,70.501053
2,8,32,641,0.878504,0.169352,0.267239,-142.212463,30.840939,71.063553
2,8,33,661,0.883387,0.093668,0.304837,-141.337463,30.028439,68.938553
2,8,34,681,0.886317,0.022379,0.352200,-134.337463,32.403439,68.376053
2,8,35,701,0.890223,-0.059652,0.433743,-120.212463,35.153439,68.313553
2,8,36,721,0.887293,-0.142172,0.540189,-117.462463,24.965939,61.001053
2,8,37,741,0.888758,-0.197836,0.613431,-143.837463,-5.346562,42.251053
2,8,38,761,0.884363,-0.156820,0.600247,-164.837463,-43.034061,22.876055
2,8,39,781,0.895594,-0.086996,0.465482,-153.524963,-68.034065,20.376055
2,8,40,801,0.912684,-0.090414,0.376126,-131.274963,-77.221565,26.751055
2,8,41,821,0.925379,-0.117758,0.283841,-103.712463,-81.534065,34.876053
2,8,42,841,0.936610,-0.186117,0.177884,-68.774963,-74.909065,37.626053
2,8,43,861,0.944422,-0.242269,0.111966,-48.712460,-68.784065,31.188555
2,8,44,881,0.943445,-0.218343,0.068509,-46.337460,-70.159065,25.938555
2,8,45,901,0.955164,-0.170492,0.044095,-47.399960,-72.096565,24.751055
2,8,46,921,0.964442,-0.186117,0.013821,-35.024960,-70.534065,31.376055
2,8,47,941,0.991785,-0.279379,-0.025241,-19.899961,-66.659065,34.813553
2,8,48,961,0.993738,-0.347250,-0.023288,-9.774961,-62.346561,29.376055
2,8,49,981,0.985438,-0.350179,-0.076022,-11.399961,-67.221565,19.751055
2,8,50,1001,0.989344,-0.312093,-0.146823,-13.212461,-68.659065,12.001055
2,8,51,1021,0.982020,-0.271078,-0.165378,-1.962461,-64.659065,13.626055
2,8,52,1041,0.988856,-0.277426,-0.162448,12.725039,-57.846561,19.001055
2,8,53,1061,0.974207,-0.300375,-0.122897,24.975039,-53.346561,21.626055
2,8,54,1081,0.960535,-0.329183,-0.161472,22.537539,-59.596561,18.688555
2,8,55,1101,0.980067,-0.363851,-0.235690,10.912539,-64.596565,11.438555
2,8,56,1121,0.982020,-0.352621,-0.274265,2.537539,-63.659061,4.626055
2,8,57,1141,0.971766,-0.328207,-0.256686,9.662539,-57.034061,-1.373945
2,8,58,1161,0.941492,-0.284750,-0.211276,22.537539,-55.284061,0.001055
2,8,59,1181,0.959070,-0.338949,-0.306979,28.162539,-61.721561,1.751055
2,8,60,1201,0.977625,-0.389242,-0.379245,32.162540,-58.471561,-5.748945
2,8,61,1221,0.983485,-0.386312,-0.388522,29.912539,-54.096561,-12.936445
2,8,62,1241,0.968836,-0.388754,-0.378268,29.412539,-48.159061,-18.123945
2,8,63,1261,0.977137,-0.411215,-0.396823,43.037540,-42.784061,-21.623945
2,8,64,1281,0.955164,-0.407797,-0.385104,64.850037,-36.971561,-25.061445
2,8,65,1301,0.976160,-0.420980,-0.502292,52.975040,-45.034061,-30.311445
2,8,66,1321,1.020594,-0.434652,-0.615085,23.912539,-47.909061,-42.748947
2,8,67,1341,1.007410,-0.368246,-0.601901,7.100039,-42.784061,-56.873947
2,8,68,1361,0.970301,-0.274008,-0.561862,18.225039,-28.471561,-62.061447
2,8,69,1381,0.935633,-0.189535,-0.519870,35.350040,-19.721561,-59.873947
2,8,70,1401,0.932215,-0.161703,-0.556003,46.537540,-15.471562,-54.873947
2,8,71,1421,0.941492,-0.136312,-0.567233,46.162540,-10.409062,-54.748947
2,8,72,1441,0.936121,-0.104086,-0.529636,45.225040,-5.471562,-54.998947
2,8,73,1461,0.936121,-0.066000,-0.496921,44.225040,-3.034062,-53.373947
2,8,74,1481,0.933680,-0.042074,-0.488132,45.600040,-0.909062,-50.436447
2,8,75,1501,0.940516,-0.033285,-0.491061,46.100040,1.965938,-47.623947
2,8,76,1521,0.941981,-0.022543,-0.491550,51.475040,5.653438,-43.561447
2,8,77,1541,0.944910,-0.012289,-0.501315,55.537540,11.528438,-40.123947
2,8,78,1561,0.942957,0.012125,-0.480808,48.475040,13.153438,-38.373947
2,8,79,1581,0.936121,0.053141,-0.465671,35.475040,10.090938,-34.811447
2,8,80,1601,0.947352,0.051188,-0.451999,21.600039,7.653438,-29.311445
2,8,81,1621,0.952235,0.042399,-0.408542,14.600039,9.090938,-27.186445
2,8,82,1641,0.947840,0.047281,-0.385593,16.100039,11.403438,-25.561445
2,8,83,1661,0.949793,0.062906,-0.359714,17.912539,15.778438,-22.373945
2,8,84,1681,0.954676,0.089762,-0.344089,21.787539,19.028439,-18.498945
2,8,85,1701,0.958094,0.081461,-0.327976,22.850039,19.715939,-13.748945
2,8,86,1721,0.961024,0.058024,-0.291354,21.475039,22.153439,-11.873945
2,8,87,1741,0.951746,0.058024,-0.259616,20.100039,18.778439,-8.686445
2,8,88,1761,0.963465,0.050699,-0.278659,16.412539,13.653438,-5.561445
2,8,89,1781,0.971277,0.029215,-0.289401,7.787539,10.590938,-5.873945
2,8,90,1801,0.972742,0.007242,-0.276706,3.162539,9.840938,-6.748945
2,8,91,1821,0.967860,0.005289,-0.256686,4.850039,8.590938,-7.373945
2,8,92,1841,0.967371,0.017985,-0.250827,3.787539,3.965938,-8.498945
2,8,93,1861,0.973719,0.034098,-0.250339,0.037539,1.215938,-8.248945
2,8,94,1881,0.975672,0.038981,-0.261569,0.912539,-1.409062,-4.623945
2,8,95,1901,0.983485,0.018961,-0.286960,1.287539,-2.159062,-3.498945
2,8,96,1921,0.979090,0.010660,-0.300143,-2.774961,-1.659062,-5.623945
2,8,97,1941,0.979578,0.021403,-0.292819,-6.649961,-2.221562,-6.748945
2,8,98,1961,0.987879,0.030680,-0.297702,-5.774961,-3.659062,-4.811445
2,8,99,1981,0.993250,0.029215,-0.323093,-3.837461,-3.909062,-1.748945
2,9,0,0,1.009852,-0.156820,-0.343601,10.412539,-1.096562,-7.561445
2,9,1,21,1.018641,-0.174886,-0.354831,15.037539,0.903438,-11.561445
2,9,2,41,1.010828,-0.171468,-0.343112,16.725039,2.778438,-16.311445
2,9,3,61,1.006434,-0.174398,-0.320163,21.912539,3.965938,-18.936445
2,9,4,81,1.000574,-0.191000,-0.298679,27.600039,4.090938,-21.873945
2,9,5,101,0.994715,-0.193929,-0.290866,28.725039,2.403438,-27.686445
2,9,6,121,0.982020,-0.179281,-0.296237,30.162539,-0.221562,-32.123947
2,9,7,141,0.990809,-0.184652,-0.335788,34.100040,-3.846562,-35.998947
2,9,8,161,1.005457,-0.179281,-0.399753,36.037540,-4.659062,-41.436447
2,9,9,181,1.009363,-0.165609,-0.447604,41.287540,-2.971562,-45.748947
2,9,10,201,1.008875,-0.156820,-0.515476,46.975040,-0.784062,-50.123947
2,9,11,221,1.013270,-0.135824,-0.551608,50.975040,7.090938,-57.811447
2,9,12,241,1.000086,-0.067953,-0.580905,54.662540,12.590938,-66.186447
2,9,13,261,0.992274,0.024332,-0.637546,52.037540,16.090939,-72.623947
2,9,14,281,0.982508,0.111246,-0.683933,40.975040,22.340939,-76.248947
2,9,15,301,0.949305,0.193278,-0.687351,30.287539,37.340939,-77.248947
2,9,16,321,0.909754,0.284098,-0.598972,24.225039,54.965939,-76.686447
2,9,17,341,0.862879,0.385660,-0.462741,22.100039,64.528435,-71.123947
2,9,18,361,0.854090,0.472086,-0.355319,21.350039,69.153435,-60.373947
2,9,19,381,0.859949,0.529215,-0.254733,16.412539,69.840935,-47.186447
2,9,20,401,0.851649,0.575114,-0.167331,12.850039,71.403435,-33.686447
2,9,21,421,0.865320,0.578532,-0.086276,14.787539,75.590935,-19.748945
2,9,22,441,0.895106,0.555582,-0.033054,15.350039,67.715935,-8.248945
2,9,23,461,0.919031,0.501383,-0.064304,9.475039,57.340939,3.251055
2,9,24,481,0.947840,0.440836,-0.139499,-7.024961,46.590939,10.938555
2,9,25,501,0.966883,0.385172,-0.209811,-20.462461,46.153439,13.251055
2,9,26,521,0.958094,0.345621,-0.187839,-26.337461,55.340939,10.938555
2,9,27,541,0.955652,0.335367,-0.132663,-29.212461,59.528439,9.876055
2,9,28,561,0.966395,0.335856,-0.114597,-34.712460,58.090939,10.001055
2,9,29,581,0.967860,0.335856,-0.108737,-43.587460,62.028439,11.751055
2,9,30,601,0.950770,0.336344,-0.063327,-52.149960,67.153435,15.438555
2,9,31,621,0.943934,0.326090,-0.006198,-56.712460,72.090935,19.001055
2,9,32,641,0.926356,0.316324,0.053860,-62.899960,74.153435,21.313555
2,9,33,661,0.910242,0.309977,0.125149,-76.149963,72.903435,21.376055
2,9,34,681,0.898524,0.318278,0.204251,-94.212463,69.778435,18.063555
2,9,35,701,0.893641,0.322184,0.275052,-110.524963,60.715939,17.063555
2,9,36,721,0.896082,0.326578,0.321927,-119.274963,48.528439,22.938555
2,9,37,741,0.886317,0.306559,0.333646,-123.149963,37.465939,31.376055
2,9,38,761,0.882899,0.250895,0.328274,-126.087463,29.465939,38.063553
2,9,39,781,0.874110,0.186442,0.336087,-127.962463,22.840939,45.438553
2,9,40,801,0.877039,0.113199,0.344388,-121.712463,19.903439,52.876053
2,9,41,821,0.891688,0.022379,0.369778,-115.712463,18.840939,56.438553
2,9,42,841,0.883387,-0.034750,0.423001,-111.462463,16.840939,54.813553
2,9,43,861,0.888270,-0.085531,0.475247,-103.962463,8.653438,52.751053
2,9,44,881,0.895106,-0.138265,0.497708,-103.337463,-8.284062,46.376053
2,9,45,901,0.894617,-0.149496,0.481107,-106.837463,-25.096561,36.438553
2,9,46,921,0.862879,-0.131429,0.444974,-115.524963,-40.471561,29.126055
2,9,47,941,0.848231,-0.098226,0.417142,-106.212463,-49.471561,30.626055
2,9,48,961,0.839442,-0.088949,0.429837,-82.962463,-55.659061,42.251053
2,9,49,981,0.854578,-0.149496,0.357083,-63.774960,-66.721565,51.876053
2,9,50,1001,0.891688,-0.234457,0.224759,-69.337463,-82.409065,49.063553
2,9,51,1021,0.871180,-0.233480,0.144192,-84.899963,-89.346565,37.751053
2,9,52,1041,0.841883,-0.189535,0.126126,-80.712463,-86.784065,38.751053
2,9,53,1061,0.848231,-0.238851,0.153470,-49.399960,-83.471565,49.938553
2,9,54,1081,0.891688,-0.388754,0.061673,-29.087461,-91.784065,51.813553
2,9,55,1101,0.922449,-0.495199,-0.079929,-26.462461,-96.409065,42.251053
2,9,56,1121,0.926356,-0.514242,-0.166354,-36.399960,-92.221565,30.376055
2,9,57,1141,0.915613,-0.494222,-0.102390,-30.962461,-83.284065,23.688555
2,9,58,1161,0.896082,-0.480062,-0.093601,-16.149961,-89.971565,26.438555
2,9,59,1181,0.935145,-0.568929,-0.257663,-10.524961,-98.284065,22.876055
2,9,60,1201,0.977137,-0.653402,-0.412448,-7.087461,-93.909065,8.001055
2,9,61,1221,0.988367,-0.649008,-0.471042,-5.087461,-82.909065,-6.498945
2,9,62,1241,0.965418,-0.578207,-0.379245,0.287539,-70.159065,-13.686445
2,9,63,1261,0.961512,-0.581625,-0.378268,9.100039,-72.409065,-21.998945
2,9,64,1281,0.974207,-0.593343,-0.480808,7.475039,-82.346565,-33.436447
2,9,65,1301,0.994715,-0.566488,-0.616550,2.225039,-82.409065,-47.123947
2,9,66,1321,1.000574,-0.501058,-0.663425,4.725039,-63.096561,-57.623947
2,9,67,1341,0.973719,-0.400961,-0.592136,19.475039,-39.159061,-59.498947
2,9,68,1361,0.947352,-0.357504,-0.500827,40.975040,-28.909061,-54.748947
2,9,69,1381,0.943934,-0.341390,-0.557956,45.537540,-32.971561,-54.123947
2,9,70,1401,0.954676,-0.323324,-0.651218,33.787540,-31.721561,-60.061447
2,9,71,1421,0.939051,-0.273519,-0.596530,27.412539,-22.659061,-66.373947
2,9,72,1441,0.912684,-0.207601,-0.521335,36.037540,-14.784062,-67.186447
2,9,73,1461,0.898035,-0.166097,-0.481296,47.225040,-10.221562,-64.811447
2,9,74,1481,0.891199,-0.128500,-0.493015,45.350040,-11.721562,-64.186447
2,9,75,1501,0.888270,-0.086508,-0.507663,39.350040,-12.909062,-63.748947
2,9,76,1521,0.891688,-0.047933,-0.508640,38.350040,-9.909062,-61.311447
2,9,77,1541,0.906824,-0.034750,-0.486667,41.787540,-6.409062,-57.123947
2,9,78,1561,0.907313,-0.021566,-0.471042,43.725040,-5.534062,-55.248947
2,9,79,1581,0.900965,-0.007894,-0.466647,43.975040,-5.159062,-54.061447
2,9,80,1601,0.902918,0.007242,-0.482761,44.162540,-5.784062,-53.311447
2,9,81,1621,0.905360,0.030680,-0.481784,43.475040,-4.846562,-52.248947
2,9,82,1641,0.914637,0.044352,-0.481296,41.850040,-5.909062,-49.498947
2,9,83,1661,0.918543,0.079996,-0.491550,38.475040,-6.284062,-47.311447
2,9,84,1681,0.911219,0.114664,-0.506198,33.100040,-5.284062,-44.123947
2,9,85,1701,0.916590,0.128336,-0.504733,26.475039,-4.034062,-39.186447
2,9,86,1721,0.919031,0.138102,-0.488620,24.100039,-1.784062,-33.936447
2,9,87,1741,0.925379,0.126871,-0.476413,26.850039,2.028438,-29.061445
2,9,88,1761,0.921473,0.136149,-0.468601,25.100039,3.778438,-27.123945
2,9,89,1781,0.915613,0.159098,-0.476413,19.412539,4.090938,-22.998945
2,9,90,1801,0.919520,0.182535,-0.462741,9.787539,4.090938,-16.936445
2,9,91,1821,0.928309,0.171305,-0.456393,6.412539,5.840938,-10.186445
2,9,92,1841,0.944910,0.122965,-0.433444,7.225039,9.278438,-5.623945
2,9,93,1861,0.934656,0.090250,-0.403659,11.912539,11.528438,-3.123945
2,9,94,1881,0.932215,0.073160,-0.395358,16.787539,12.403438,-1.561445
2,9,95,1901,0.942957,0.051676,-0.376315,18.787539,12.465938,1.376055
2,9,96,1921,0.945399,0.030192,-0.361179,17.287539,10.278438,2.251055
2,9,97,1941,0.945887,0.017008,-0.352390,8.162539,7.028438,-1.186445
2,9,98,1961,0.933680,0.025309,-0.346042,-1.524961,3.653438,-4.936445
2,9,99,1981,0.941981,0.027262,-0.342136,-2.524961,0.278438,-5.873945
2,10,0,0,0.997645,-0.099203,-0.469577,19.350039,9.778438,-20.123945
2,10,1,21,1.010828,-0.136312,-0.484714,21.475039,12.590938,-25.248945
2,10,2,41,1.011805,-0.139730,-0.515964,22.475039,14.465938,-32.561447
2,10,3,61,1.018641,-0.126058,-0.559421,25.600039,13.653438,-37.311447
2,10,4,81,1.034266,-0.117269,-0.638034,31.287539,16.465939,-41.561447
2,10,5,101,1.023524,-0.080648,-0.702976,35.350040,25.153439,-47.686447
2,10,6,121,0.997156,-0.009359,-0.718112,33.850040,40.340939,-55.311447
2,10,7,141,0.953211,0.101969,-0.665866,29.475039,48.403439,-59.811447
2,10,8,161,0.911707,0.212809,-0.612643,23.787539,58.465939,-59.123947
2,10,9,181,0.896570,0.304117,-0.542819,16.225039,70.465935,-58.248947
2,10,10,201,0.867274,0.370524,-0.470554,7.162539,76.278435,-53.561447
2,10,11,221,0.869227,0.420328,-0.385104,-1.837461,82.278435,-47.623947
2,10,12,241,0.857508,0.462809,-0.297702,-8.149961,84.590935,-39.436447
2,10,13,261,0.853113,0.498942,-0.221530,-11.712461,85.528435,-26.623945
2,10,14,281,0.859949,0.500895,-0.143405,-13.649961,86.715935,-17.498945
2,10,15,301,0.860926,0.495035,-0.077487,-20.462461,81.278435,-8.373945
2,10,16,321,0.882899,0.466227,-0.055026,-30.649961,76.715935,1.751055
2,10,17,341,0.882899,0.443766,-0.023776,-38.524960,74.903435,7.001055
2,10,18,361,0.879481,0.419352,0.023099,-43.024960,73.465935,13.751055
2,10,19,381,0.880457,0.393961,0.078763,-48.337460,72.153435,19.563555
2,10,20,401,0.879969,0.368571,0.146146,-55.837460,70.840935,22.813555
2,10,21,421,0.877527,0.360758,0.243314,-68.024963,65.215935,23.376055
2,10,22,441,0.870692,0.362711,0.294583,-86.087463,46.903439,23.876055
2,10,23,461,0.868738,0.369547,0.312161,-99.524963,29.528439,29.001055
2,10,24,481,0.882899,0.349528,0.282376,-110.899963,13.715938,38.438553
2,10,25,501,0.889246,0.308024,0.257474,-113.962463,5.840938,48.813553
2,10,26,521,0.899500,0.252848,0.231595,-114.087463,-1.409062,59.063553
2,10,27,541,0.911219,0.187418,0.201810,-115.337463,-8.846562,65.126053
2,10,28,561,0.915125,0.133707,0.182278,-116.024963,-12.534062,67.563553
2,10,29,581,0.900477,0.090250,0.189114,-114.337463,-14.284062,69.813553
2,10,30,601,0.907313,0.034586,0.189114,-113.399963,-17.471561,72.688553
2,10,31,621,0.913660,-0.025472,0.192044,-105.274963,-22.909061,75.251053
2,10,32,641,0.930262,-0.084066,0.143216,-97.587463,-32.346561,78.063553
2,10,33,661,0.945887,-0.141195,0.063138,-92.587463,-41.409061,77.188553
2,10,34,681,0.968348,-0.206625,0.011868,-104.524963,-44.721561,66.938553
2,10,35,701,0.939539,-0.200765,0.002591,-115.399963,-42.596561,52.563553
2,10,36,721,0.921961,-0.175863,0.055325,-92.837463,-39.221561,54.126053
2,10,37,741,0.925867,-0.211996,0.039212,-65.837463,-42.284061,62.376053
2,10,38,761,0.943934,-0.294515,-0.052585,-54.524960,-48.034061,71.688553
2,10,39,781,0.965418,-0.371664,-0.113132,-54.837460,-48.784061,71.188553
2,10,40,801,0.957606,-0.415609,-0.110202,-56.649960,-43.159061,61.313553
2,10,41,821,0.923914,-0.431234,-0.013034,-47.399960,-34.096561,50.438553
2,10,42,841,0.907313,-0.433676,0.037747,-34.337460,-39.909061,45.376053
2,10,43,861,0.916590,-0.425375,0.006985,-40.837460,-58.659061,38.376053
2,10,44,881,0.921473,-0.413168,-0.111667,-59.399960,-74.659065,30.751055
2,10,45,901,0.920496,-0.432211,-0.191745,-61.524960,-75.721565,26.376055
2,10,46,921,0.936121,-0.508871,-0.225436,-33.337460,-65.471565,25.563555
2,10,47,941,0.932703,-0.553793,-0.209323,-4.212461,-53.409061,26.438555
2,10,48,961,0.916102,-0.585043,-0.203952,6.787539,-58.159061,26.376055
2,10,49,981,0.919031,-0.628988,-0.272311,3.662539,-66.846565,18.688555
2,10,50,1001,0.937098,-0.638754,-0.334811,-9.962461,-73.346565,2.626055
2,10,51,1021,0.899012,-0.574789,-0.335788,-18.212461,-77.596565,-10.498945
2,10,52,1041,0.887293,-0.545492,-0.348972,-11.899961,-72.534065,-18.873945
2,10,53,1061,0.862391,-0.524984,-0.332858,0.350039,-67.534065,-28.123945
2,10,54,1081,0.849207,-0.497640,-0.386569,-1.087461,-77.346565,-37.811447
2,10,55,1101,0.863367,-0.474691,-0.484226,-12.149961,-84.721565,-47.873947
2,10,56,1121,0.860926,-0.418539,-0.585788,-20.274961,-88.221565,-54.686447
2,10,57,1141,0.877039,-0.428304,-0.684909,-0.837461,-80.221565,-58.311447
2,10,58,1161,0.895106,-0.417074,-0.771335,7.537539,-66.409065,-64.623947
2,10,59,1181,0.892664,-0.357015,-0.803073,30.162539,-43.659061,-66.561447
2,10,60,1201,0.881922,-0.349203,-0.760104,43.287540,-26.034061,-65.311447
2,10,61,1221,0.869715,-0.346761,-0.722995,46.912540,-20.471561,-66.373947
2,10,62,1241,0.861902,-0.319906,-0.760104,37.225040,-25.034061,-72.811447
2,10,63,1261,0.863367,-0.278402,-0.801120,30.475039,-21.534061,-78.061447
2,10,64,1281,0.848719,-0.234457,-0.766940,35.600040,-9.221562,-78.311447
2,10,65,1301,0.846277,-0.220297,-0.734226,45.850040,-0.971562,-77.061447
2,10,66,1321,0.835535,-0.197836,-0.705905,52.600040,4.215938,-79.311447
2,10,67,1341,0.834070,-0.135824,-0.698581,55.537540,6.965938,-81.186447
2,10,68,1361,0.826258,-0.066976,-0.676120,53.975040,11.715938,-82.561447
2,10,69,1381,0.809168,-0.008383,-0.643893,50.412540,14.340938,-84.561447
2,10,70,1401,0.804774,0.054117,-0.621921,46.037540,15.715938,-82.311447
2,10,71,1421,0.812098,0.112711,-0.599948,43.662540,19.590939,-80.311447
2,10,72,1441,0.815027,0.140055,-0.593112,44.350040,23.653439,-77.311447
2,10,73,1461,0.836024,0.184489,-0.596530,47.100040,31.340939,-70.186447
2,10,74,1481,0.850672,0.229899,-0.561374,51.412540,38.590939,-59.686447
2,10,75,1501,0.858485,0.234782,-0.519382,51.037540,39.465939,-48.436447
2,10,76,1521,0.866297,0.178629,-0.503268,47.037540,40.403439,-43.623947
2,10,77,1541,0.882410,0.160074,-0.486179,41.725040,40.840939,-41.061447
2,10,78,1561,0.894617,0.169840,-0.466647,39.537540,40.340939,-36.686447
2,10,79,1581,0.927332,0.129801,-0.481296,35.912540,39.590939,-33.186447
2,10,80,1601,0.933680,0.114176,-0.456393,27.100039,39.778439,-33.873947
2,10,81,1621,0.931727,0.123942,-0.414401,20.537539,37.153439,-30.686445
2,10,82,1641,0.943934,0.101481,-0.389987,23.100039,39.153439,-28.998945
2,10,83,1661,0.946375,0.098551,-0.352390,22.725039,36.653439,-27.061445
2,10,84,1681,0.935145,0.135172,-0.303073,21.912539,32.590939,-23.061445
2,10,85,1701,0.931238,0.155192,-0.280612,16.287539,25.778439,-19.373945
2,10,86,1721,0.929774,0.149821,-0.304050,10.475039,19.715939,-14.811445
2,10,87,1741,0.948817,0.131266,-0.327487,4.287539,14.715938,-10.061445
2,10,88,1761,0.974207,0.102457,-0.336765,2.475039,14.090938,-6.936445
2,10,89,1781,0.978113,0.082926,-0.315280,6.225039,15.590938,-5.311445
2,10,90,1801,0.974207,0.083414,-0.300143,12.350039,15.090938,-3.061445
2,10,91,1821,0.977137,0.087321,-0.291354,13.475039,13.278438,-0.873945
2,10,92,1841,0.986414,0.073649,-0.294284,9.912539,10.340938,0.001055
2,10,93,1861,0.988367,0.053141,-0.314304,5.100039,9.715938,-0.748945
2,10,94,1881,0.985926,0.032145,-0.304538,0.975039,8.590938,-4.186445
2,10,95,1901,0.982996,0.052653,-0.298679,-0.274961,7.528438,-9.123945
2,10,96,1921,0.977137,0.086832,-0.294284,0.975039,7.590938,-11.123945
2,10,97,1941,0.974695,0.120035,-0.289401,2.787539,6.028438,-9.123945
2,10,98,1961,0.978113,0.128824,-0.280612,4.850039,6.528438,-4.936445
2,10,99,1981,0.967860,0.130289,-0.255710,6.100039,6.903438,-2.248945
2,11,0,0,1.029383,-0.119711,-0.303561,20.100039,4.840938,4.688555
2,11,1,21,1.024012,-0.168539,-0.285983,25.287539,6.028438,3.438555
2,11,2,41,1.015223,-0.210531,-0.261569,36.787540,8.340938,1.438555
2,11,3,61,1.014735,-0.259359,-0.242526,55.100040,10.653438,0.188555
2,11,4,81,1.021570,-0.321859,-0.241061,69.350037,10.090938,-3.248945
2,11,5,101,1.019617,-0.357992,-0.263034,69.662537,5.153438,-17.373945
2,11,6,121,1.010828,-0.334066,-0.270358,63.475040,-0.034062,-34.123947
2,11,7,141,0.996180,-0.286215,-0.306003,58.350040,-7.159062,-47.498947
2,11,8,161,1.003016,-0.253988,-0.378757,48.787540,-16.034061,-62.061447
2,11,9,181,0.991297,-0.181234,-0.454929,46.787540,-22.784061,-75.186447
2,11,10,201,0.984461,-0.071371,-0.571140,66.412537,-20.721561,-80.061447
2,11,11,221,0.977625,0.044840,-0.665866,91.537537,0.153438,-77.436447
2,11,12,241,0.945399,0.130289,-0.625339,96.412537,16.840939,-70.873947
2,11,13,261,0.923914,0.182535,-0.556003,84.600037,20.153439,-66.623947
2,11,14,281,0.931238,0.194742,-0.536472,74.225037,20.715939,-63.436447
2,11,15,301,0.946375,0.200602,-0.521823,66.850037,27.778439,-64.998947
2,11,16,321,0.927820,0.234293,-0.493015,63.787540,33.028439,-67.436447
2,11,17,341,0.931238,0.282145,-0.526706,58.600040,29.903439,-68.561447
2,11,18,361,0.942469,0.356364,-0.567722,45.975040,32.028439,-68.811447
2,11,19,381,0.931727,0.413981,-0.596042,29.787539,40.153439,-65.936447
2,11,20,401,0.913172,0.466715,-0.557956,13.725039,50.840939,-61.686447
2,11,21,421,0.885828,0.541910,-0.497409,-1.524961,57.215939,-52.123947
2,11,22,441,0.873621,0.585367,-0.406589,-13.399961,66.090935,-39.498947
2,11,23,461,0.859461,0.612711,-0.281589,-21.149961,71.465935,-27.623945
2,11,24,481,0.844324,0.621500,-0.187839,-27.149961,72.278435,-15.998945
2,11,25,501,0.848231,0.606364,-0.153171,-42.899960,66.653435,-3.686445
2,11,26,521,0.857508,0.585367,-0.082858,-64.274963,62.278439,3.626055
2,11,27,541,0.856531,0.555094,-0.049167,-87.087463,55.028439,11.938555
2,11,28,561,0.850672,0.523356,0.024564,-109.899963,52.403439,16.251055
2,11,29,581,0.848231,0.504313,0.092923,-123.837463,42.528439,22.438555
2,11,30,601,0.851649,0.485270,0.127591,-130.399963,32.278439,30.626055
2,11,31,621,0.862391,0.456461,0.140286,-132.274963,24.590939,39.251053
2,11,32,641,0.866297,0.414957,0.145657,-129.712463,18.715939,49.751053
2,11,33,661,0.876551,0.356364,0.152005,-132.274963,12.590938,58.688553
2,11,34,681,0.885828,0.297282,0.151028,-140.212463,3.403438,64.188553
2,11,35,701,0.896082,0.238688,0.155911,-147.024963,-3.346562,66.438553
2,11,36,721,0.901453,0.192301,0.177884,-149.837463,-7.784062,67.313553
2,11,37,741,0.882899,0.155680,0.201321,-139.212463,-12.159062,73.251053
2,11,38,761,0.887293,0.093180,0.203763,-124.149963,-18.471561,81.313553
2,11,39,781,0.919031,0.023844,0.190091,-109.462463,-26.909061,87.251053
2,11,40,801,0.946863,-0.094808,0.142239,-93.399963,-34.721561,87.813553
2,11,41,821,0.960047,-0.181722,0.068997,-89.399963,-39.909061,64.563553
2,11,42,841,0.963465,-0.221273,0.018216,-90.899963,-40.534061,58.313553
2,11,43,861,0.955652,-0.232015,0.049466,-106.149963,-45.159061,43.126053
2,11,44,881,0.946863,-0.171468,0.090970,-105.524963,-46.596561,33.251053
2,11,45,901,0.920008,-0.125082,0.110501,-83.024963,-53.596561,32.688553
2,11,46,921,0.957117,-0.164633,0.048001,-58.774960,-63.159061,42.251053
2,11,47,941,0.971766,-0.255941,-0.041354,-49.274960,-69.284065,47.251053
2,11,48,961,0.966883,-0.298910,-0.128757,-51.337460,-69.346565,43.813553
2,11,49,981,0.964930,-0.288168,-0.153659,-68.649963,-72.596565,30.626055
2,11,50,1001,0.957606,-0.211019,-0.204929,-92.212463,-86.346565,18.188555
2,11,51,1021,0.941004,-0.113851,-0.260104,-104.149963,-87.846565,13.876055
2,11,52,1041,0.931238,-0.062582,-0.282077,-100.899963,-85.346565,16.501055
2,11,53,1061,0.907313,-0.044027,-0.283542,-83.149963,-76.284065,25.376055
2,11,54,1081,0.898035,-0.121176,-0.283054,-56.962460,-69.346565,34.751053
2,11,55,1101,0.911219,-0.242758,-0.333835,-35.899960,-66.784065,36.626053
2,11,56,1121,0.948817,-0.313558,-0.407565,-20.962461,-64.971565,33.126053
2,11,57,1141,0.946375,-0.332601,-0.428073,-9.649961,-56.159061,28.376055
2,11,58,1161,0.934656,-0.356527,-0.407565,0.225039,-47.846561,24.188555
2,11,59,1181,0.930262,-0.413656,-0.413425,5.100039,-49.096561,17.688555
2,11,60,1201,0.953211,-0.452230,-0.467624,1.662539,-51.971561,7.626055
2,11,61,1221,0.942957,-0.459554,-0.502780,-0.087461,-52.034061,-2.873945
2,11,62,1241,0.940027,-0.488851,-0.520847,1.600039,-52.096561,-13.248945
2,11,63,1261,0.926356,-0.493734,-0.541354,5.725039,-51.159061,-22.436445
2,11,64,1281,0.923426,-0.482015,-0.575534,12.912539,-50.159061,-32.811447
2,11,65,1301,0.938074,-0.445883,-0.679050,13.037539,-52.096561,-44.248947
2,11,66,1321,0.940027,-0.386312,-0.736667,16.350039,-50.159061,-54.936447
2,11,67,1341,0.928309,-0.326254,-0.770847,19.912539,-42.096561,-61.186447
2,11,68,1361,0.915613,-0.271566,-0.766940,30.600039,-26.534061,-64.561447
2,11,69,1381,0.878992,-0.216879,-0.711765,42.037540,-13.346562,-65.686447
2,11,70,1401,0.854090,-0.174886,-0.679050,47.412540,-12.096562,-65.811447
2,11,71,1421,0.859461,-0.142660,-0.729343,51.537540,-12.284062,-66.186447
2,11,72,1441,0.869227,-0.107504,-0.750827,54.975040,-4.159062,-66.123947
2,11,73,1461,0.865809,-0.066976,-0.764011,57.412540,2.215938,-63.936447
2,11,74,1481,0.862879,-0.046469,-0.711765,61.412540,12.465938,-59.311447
2,11,75,1501,0.852137,-0.045980,-0.683444,59.975040,15.090938,-57.936447
2,11,76,1521,0.862879,-0.046469,-0.676608,55.725040,17.778439,-60.436447
2,11,77,1541,0.851160,0.003336,-0.636569,51.537540,20.528439,-63.186447
2,11,78,1561,0.834559,0.053141,-0.616550,50.412540,21.590939,-61.623947
2,11,79,1581,0.836024,0.084391,-0.610690,41.912540,22.778439,-58.061447
2,11,80,1601,0.843348,0.113199,-0.588718,30.662539,29.590939,-56.561447
2,11,81,1621,0.842371,0.139078,-0.542331,30.100039,33.090939,-55.123947
2,11,82,1641,0.842860,0.152750,-0.531589,41.850040,37.403439,-50.248947
2,11,83,1661,0.870692,0.163981,-0.535495,53.975040,43.840939,-43.936447
2,11,84,1681,0.882899,0.213785,-0.519870,62.475040,47.528439,-33.123947
2,11,85,1701,0.907313,0.203532,-0.487155,68.787537,50.278439,-20.748945
2,11,86,1721,0.926356,0.150309,-0.454440,58.162540,50.778439,-16.623945
2,11,87,1741,0.932703,0.088785,-0.411472,39.975040,48.028439,-18.811445
2,11,88,1761,0.926356,0.077555,-0.373386,25.975039,40.465939,-23.998945
2,11,89,1781,0.920985,0.094156,-0.326999,16.537539,33.653439,-26.498945
2,11,90,1801,0.917567,0.138590,-0.297702,8.725039,23.090939,-25.311445
2,11,91,1821,0.932215,0.142008,-0.315768,6.850039,18.340939,-21.311445
2,11,92,1841,0.932703,0.161051,-0.305026,5.787539,15.403438,-14.873945
2,11,93,1861,0.944422,0.156168,-0.285007,6.912539,14.778438,-8.123945
2,11,94,1881,0.936610,0.151285,-0.277194,8.537539,10.715938,-3.123945
2,11,95,1901,0.941492,0.127360,-0.296237,7.537539,7.340938,0.313555
2,11,96,1921,0.943934,0.117106,-0.287448,3.662539,3.965938,2.063555
2,11,97,1941,0.944422,0.102946,-0.293308,2.975039,2.340938,4.063555
2,11,98,1961,0.960535,0.064860,-0.294284,2.725039,1.278438,4.376055
2,11,99,1981,0.968348,0.058024,-0.284518,0.600039,-0.471562,2.126055
2,12,0,0,1.000574,-0.153890,-0.337253,13.225039,5.965938,3.563555
2,12,1,21,1.002527,-0.189535,-0.347995,16.412539,6.965938,-1.061445
2,12,2,41,1.001063,-0.204672,-0.322116,20.975039,6.090938,-5.998945
2,12,3,61,1.013270,-0.222250,-0.334811,28.475039,5.715938,-10.186445
2,12,4,81,1.018152,-0.234945,-0.349460,31.912539,5.715938,-14.623945
2,12,5,101,1.010828,-0.234945,-0.334811,33.600040,4.840938,-20.311445
2,12,6,121,0.993738,-0.229086,-0.310397,37.975040,3.028438,-26.248945
2,12,7,141,0.975672,-0.208578,-0.303073,37.100040,-0.909062,-35.686447
2,12,8,161,0.963953,-0.180258,-0.310397,36.600040,-5.659062,-42.811447
2,12,9,181,0.970789,-0.158773,-0.335300,37.662540,-10.659062,-47.998947
2,12,10,201,0.972254,-0.137777,-0.364597,37.600040,-12.159062,-52.873947
2,12,11,221,0.977137,-0.127523,-0.408542,39.600040,-14.471562,-58.686447
2,12,12,241,0.964930,-0.072347,-0.466159,35.600040,-14.721562,-68.623947
2,12,13,261,0.949305,0.025797,-0.526706,27.100039,-12.096562,-75.748947
2,12,14,281,0.947352,0.124430,-0.583347,27.162539,-4.409062,-75.498947
2,12,15,301,0.948817,0.162516,-0.612155,34.037540,5.590938,-70.248947
2,12,16,321,0.943445,0.199625,-0.587253,38.662540,21.278439,-66.686447
2,12,17,341,0.915613,0.242594,-0.517429,38.850040,29.840939,-64.498947
2,12,18,361,0.896082,0.271891,-0.452976,42.100040,32.090939,-58.686447
2,12,19,381,0.899988,0.282633,-0.428073,42.662540,33.528439,-52.873947
2,12,20,401,0.916102,0.265543,-0.409518,37.975040,36.028439,-49.748947
2,12,21,421,0.914149,0.272867,-0.376315,32.600040,37.528439,-48.248947
2,12,22,441,0.911707,0.306559,-0.368991,23.412539,33.653439,-47.186447
2,12,23,461,0.913172,0.358805,-0.363620,8.350039,30.215939,-47.123947
2,12,24,481,0.911219,0.409098,-0.377780,-2.149961,27.465939,-42.248947
2,12,25,501,0.921961,0.441324,-0.382663,-13.337461,28.528439,-37.123947
2,12,26,521,0.916102,0.463785,-0.389011,-33.149960,27.778439,-34.373947
2,12,27,541,0.907313,0.497477,-0.353854,-47.337460,30.028439,-29.748945
2,12,28,561,0.886805,0.556559,-0.287448,-57.962460,31.715939,-24.248945
2,12,29,581,0.869227,0.607828,-0.213718,-62.274960,31.903439,-14.123945
2,12,30,601,0.868250,0.627848,-0.153659,-62.649960,29.528439,-3.311445
2,12,31,621,0.871180,0.625407,-0.131686,-63.712460,25.778439,6.438555
2,12,32,641,0.872645,0.615153,-0.119968,-66.149963,21.903439,17.813555
2,12,33,661,0.869227,0.599039,-0.116550,-69.524963,18.590939,27.876055
2,12,34,681,0.878016,0.574625,-0.120456,-78.899963,13.840938,37.313553
2,12,35,701,0.882410,0.549723,-0.116550,-87.399963,8.653438,47.251053
2,12,36,721,0.890711,0.513102,-0.105808,-91.399963,5.590938,55.188553
2,12,37,741,0.891688,0.469645,-0.111179,-97.524963,2.278438,62.063553
2,12,38,761,0.895106,0.429606,-0.122897,-102.274963,-1.596562,68.688553
2,12,39,781,0.899988,0.385172,-0.126315,-104.399963,-1.159062,73.751053
2,12,40,801,0.899012,0.338785,-0.120944,-101.649963,0.965938,79.063553
2,12,41,821,0.900965,0.295328,-0.108249,-96.212463,2.215938,83.688553
2,12,42,841,0.901942,0.237223,-0.102390,-94.649963,2.153438,89.126053
2,12,43,861,0.911707,0.164957,-0.094089,-97.212463,-0.534062,94.626053
2,12,44,881,0.913660,0.086832,-0.081882,-92.962463,-0.159062,99.813553
2,12,45,901,0.919520,-0.010336,-0.080417,-80.837463,-1.034062,103.876053
2,12,46,921,0.940027,-0.107992,-0.098972,-69.462463,2.528438,100.438553
2,12,47,941,0.949305,-0.184652,-0.087253,-60.337460,5.278438,91.813553
2,12,48,961,0.966883,-0.250082,-0.043796,-66.087463,3.153438,77.876053
2,12,49,981,0.977137,-0.254965,-0.015964,-77.962463,-0.721562,62.063553
2,12,50,1001,0.963953,-0.204183,0.022122,-81.087463,-9.471562,50.313553
2,12,51,1021,0.956141,-0.155843,-0.019382,-81.962463,-21.596561,48.751053
2,12,52,1041,0.965906,-0.170492,-0.095065,-72.149963,-23.284061,53.438553
2,12,53,1061,0.985438,-0.247640,-0.104343,-53.837460,-19.096561,57.563553
2,12,54,1081,0.982996,-0.296957,-0.058933,-36.962460,-15.221562,54.001053
2,12,55,1101,0.962488,-0.283285,-0.019870,-22.899961,-10.159062,49.751053
2,12,56,1121,0.931238,-0.255453,0.053372,-15.649961,-11.784062,45.376053
2,12,57,1141,0.924402,-0.243246,0.062649,-23.899961,-25.659061,41.813553
2,12,58,1161,0.927332,-0.250082,0.011868,-38.837460,-40.159061,38.751053
2,12,59,1181,0.922938,-0.258383,-0.057468,-42.774960,-47.721561,35.251053
2,12,60,1201,0.931238,-0.275961,-0.072116,-29.087461,-43.596561,34.188553
2,12,61,1221,0.920008,-0.311605,-0.078464,-5.212461,-40.346561,33.938553
2,12,62,1241,0.911707,-0.334066,-0.115085,13.412539,-44.784061,40.188553
2,12,63,1261,0.913660,-0.348226,-0.164401,16.725039,-51.659061,41.563553
2,12,64,1281,0.922449,-0.377523,-0.233737,-3.899961,-60.221561,36.063553
2,12,65,1301,0.898035,-0.359457,-0.213229,-9.337461,-58.534061,29.063555
2,12,66,1321,0.882410,-0.346761,-0.210300,2.100039,-61.346561,29.438555
2,12,67,1341,0.889246,-0.371176,-0.285983,12.850039,-63.159061,32.563553
2,12,68,1361,0.895106,-0.377035,-0.359226,22.537539,-60.159061,34.751053
2,12,69,1381,0.876551,-0.430258,-0.376804,23.037539,-56.659061,33.626053
2,12,70,1401,0.886805,-0.477133,-0.356784,14.662539,-57.846561,28.126055
2,12,71,1421,0.869715,-0.461996,-0.394382,8.850039,-63.784061,23.313555
2,12,72,1441,0.893641,-0.461996,-0.512546,5.912539,-68.159065,21.376055
2,12,73,1461,0.894129,-0.484457,-0.539890,10.287539,-59.909061,0.188555
2,12,74,1481,0.883875,-0.496664,-0.522800,11.912539,-49.346561,9.313555
2,12,75,1501,0.867274,-0.518636,-0.482761,12.475039,-52.346561,5.751055
2,12,76,1521,0.887293,-0.567953,-0.611667,9.537539,-58.721561,-0.123945
2,12,77,1541,0.885828,-0.586996,-0.644870,12.975039,-41.596561,-7.436445
2,12,78,1561,0.864832,-0.581625,-0.551120,19.850039,-30.534061,-11.873945
2,12,79,1581,0.860926,-0.619222,-0.482272,26.912539,-29.471561,-16.561445
2,12,80,1601,0.843348,-0.628500,-0.472995,30.350039,-30.346561,-26.186445
2,12,81,1621,0.834559,-0.615316,-0.502292,23.787539,-40.846561,-37.686447
2,12,82,1641,0.833582,-0.579183,-0.568210,19.912539,-42.096561,-48.248947
2,12,83,1661,0.828211,-0.534261,-0.597018,21.287539,-40.284061,-55.873947
2,12,84,1681,0.827235,-0.493246,-0.600436,22.537539,-37.346561,-62.998947
2,12,85,1701,0.818934,-0.438070,-0.594089,19.037539,-36.096561,-71.186447
2,12,86,1721,0.808680,-0.379476,-0.598483,18.037539,-38.659061,-76.498947
2,12,87,1741,0.814051,-0.342367,-0.654147,20.037539,-38.409061,-79.873947
2,12,88,1761,0.820399,-0.281820,-0.693210,22.162539,-30.409061,-82.561447
2,12,89,1781,0.810633,-0.219808,-0.692233,28.037539,-20.971561,-81.186447
2,12,90,1801,0.805750,-0.174398,-0.696140,32.600040,-13.721562,-77.998947
2,12,91,1821,0.813563,-0.160238,-0.707858,28.912539,-8.846562,-75.998947
2,12,92,1841,0.819422,-0.156820,-0.709323,22.287539,-1.409062,-79.936447
2,12,93,1861,0.818445,-0.090414,-0.677097,22.787539,4.090938,-75.998947
2,12,94,1881,0.836512,-0.081625,-0.649265,33.850040,11.340938,-65.123947
2,12,95,1901,0.838953,-0.092855,-0.627292,36.787540,14.278438,-60.248947
2,12,96,1921,0.841395,-0.088461,-0.612643,33.600040,19.278439,-58.623947
2,12,97,1941,0.837000,-0.065511,-0.604831,27.412539,21.028439,-58.061447
2,12,98,1961,0.837488,-0.036215,-0.586765,21.100039,21.215939,-56.436447
2,12,99,1981,0.841883,0.009196,-0.532565,12.225039,20.153439,-53.436447
2,13,0,0,0.997645,-0.134359,-0.369479,7.662539,5.965938,2.813555
2,13,1,21,1.001551,-0.174398,-0.363132,15.225039,7.590938,1.813555
2,13,2,41,1.016688,-0.223226,-0.362155,20.037539,8.965938,-1.186445
2,13,3,61,1.012781,-0.252035,-0.363620,21.475039,7.340938,-8.998945
2,13,4,81,1.003016,-0.248129,-0.349948,21.725039,4.278438,-18.123945
2,13,5,101,0.995692,-0.235433,-0.342624,23.787539,3.715938,-24.811445
2,13,6,121,0.998621,-0.238363,-0.346042,31.412539,4.840938,-28.498945
2,13,7,141,1.003016,-0.254965,-0.344089,37.225040,5.340938,-35.373947
2,13,8,161,0.992274,-0.232504,-0.349460,38.975040,4.153438,-43.623947
2,13,9,181,0.993250,-0.231039,-0.374851,46.787540,2.903438,-48.873947
2,13,10,201,0.999110,-0.250082,-0.394870,58.975040,3.840938,-54.873947
2,13,11,221,0.991785,-0.247152,-0.416843,69.912537,2.465938,-65.373947
2,13,12,241,0.971766,-0.202230,-0.449069,71.350037,1.653438,-80.623947
2,13,13,261,0.947352,-0.133871,-0.468601,90.162537,2.090938,-91.873947
2,13,14,281,0.910731,-0.013754,-0.541354,152.475037,8.778438,-88.623947
2,13,15,301,0.932703,0.093180,-0.701511,211.100037,29.778439,-77.311447
2,13,16,321,0.977137,0.144449,-0.769870,202.100037,47.215939,-70.686447
2,13,17,341,0.963953,0.195719,-0.662448,151.600037,54.715939,-68.373947
2,13,18,361,0.921961,0.244059,-0.521335,109.537537,45.153439,-68.998947
2,13,19,381,0.912195,0.243082,-0.450534,82.725037,38.778439,-70.186447
2,13,20,401,0.877039,0.304117,-0.397800,66.475037,34.778439,-73.686447
2,13,21,421,0.869227,0.364176,-0.386081,55.975040,28.965939,-69.811447
2,13,22,441,0.870692,0.429606,-0.387058,37.600040,25.340939,-63.686447
2,13,23,461,0.878992,0.473063,-0.364597,20.412539,22.278439,-51.623947
2,13,24,481,0.882899,0.491617,-0.336276,9.475039,24.215939,-38.561447
2,13,25,501,0.883875,0.494059,-0.311862,-1.587461,24.465939,-26.748945
2,13,26,521,0.893152,0.496012,-0.295261,-16.024961,18.840939,-19.061445
2,13,27,541,0.897059,0.498942,-0.284030,-31.024961,14.840938,-12.686445
2,13,28,561,0.886805,0.503824,-0.279147,-43.899960,10.778438,-4.686445
2,13,29,581,0.888270,0.504313,-0.276706,-56.837460,6.715938,3.501055
2,13,30,601,0.898524,0.497965,-0.276218,-71.962463,2.153438,11.563555
2,13,31,621,0.895594,0.494547,-0.269382,-88.837463,-0.596562,17.376055
2,13,32,641,0.885828,0.499430,-0.258151,-103.149963,-5.096562,24.063555
2,13,33,661,0.890711,0.495524,-0.256686,-116.024963,-9.909062,33.188553
2,13,34,681,0.889735,0.483317,-0.270847,-123.462463,-12.846562,43.876053
2,13,35,701,0.885828,0.472574,-0.302097,-126.087463,-15.471562,57.313553
2,13,36,721,0.884852,0.448649,-0.327487,-125.899963,-14.471562,72.313553
2,13,37,741,0.882410,0.411051,-0.321140,-120.962463,-9.221562,86.376053
2,13,38,761,0.876551,0.355875,-0.289890,-110.962463,-0.846562,102.188553
2,13,39,781,0.864832,0.266520,-0.274265,-102.212463,7.528438,115.001053
2,13,40,801,0.876063,0.155192,-0.254733,-96.774963,14.403438,120.938553
2,13,41,821,0.883875,0.048746,-0.222018,-99.024963,18.528439,118.813553
2,13,42,841,0.884363,-0.014730,-0.178073,-102.649963,23.278439,111.688553
2,13,43,861,0.871668,-0.071371,-0.109714,-98.087463,28.215939,109.563553
2,13,44,881,0.869715,-0.145590,-0.035495,-87.337463,27.840939,114.751053
2,13,45,901,0.880457,-0.236898,0.011868,-74.087463,23.215939,114.126053
2,13,46,921,0.906824,-0.315023,0.001126,-66.274963,12.715938,102.438553
2,13,47,941,0.909266,-0.334554,-0.014499,-92.149963,-8.471562,79.001053
2,13,48,961,0.919520,-0.278890,-0.113620,-124.399963,-29.159061,63.501053
2,13,49,981,0.912684,-0.190023,-0.158054,-129.087463,-37.784061,56.938553
2,13,50,1001,0.902918,-0.156332,-0.167819,-117.274963,-31.784061,63.688553
2,13,51,1021,0.896570,-0.215902,-0.097018,-85.649963,-18.659061,77.063553
2,13,52,1041,0.866785,-0.274008,-0.086276,-67.399963,-19.471561,82.376053
2,13,53,1061,0.846766,-0.325765,-0.165378,-67.337463,-29.409061,83.251053
2,13,54,1081,0.866785,-0.366781,-0.250339,-81.462463,-38.909061,76.938553
2,13,55,1101,0.874598,-0.399496,-0.284030,-82.712463,-37.096561,68.876053
2,13,56,1121,0.877527,-0.447836,-0.240573,-57.899960,-29.284061,71.876053
2,13,57,1141,0.870203,-0.494222,-0.249851,-37.587460,-28.346561,72.251053
2,13,58,1161,0.885340,-0.547445,-0.295749,-40.837460,-33.221561,61.376053
2,13,59,1181,0.880457,-0.534261,-0.368015,-58.649960,-48.034061,48.438553
2,13,60,1201,0.889735,-0.545004,-0.447116,-61.462460,-54.471561,41.501053
2,13,61,1221,0.888270,-0.555258,-0.457858,-51.649960,-45.596561,34.876053
2,13,62,1241,0.877039,-0.534261,-0.467624,-37.899960,-38.909061,30.126055
2,13,63,1261,0.863367,-0.517660,-0.492038,-22.024961,-36.909061,30.626055
2,13,64,1281,0.866785,-0.538168,-0.507663,-13.524961,-35.096561,33.813553
2,13,65,1301,0.867762,-0.582113,-0.473972,-14.962461,-32.409061,31.126055
2,13,66,1321,0.836024,-0.633383,-0.428561,-10.337461,-36.659061,23.876055
2,13,67,1341,0.852625,-0.683187,-0.498874,0.912539,-39.971561,13.438555
2,13,68,1361,0.864344,-0.663656,-0.564792,6.412539,-35.721561,2.063555
2,13,69,1381,0.855067,-0.639730,-0.557468,10.600039,-29.346561,-4.873945
2,13,70,1401,0.845789,-0.623129,-0.483737,9.850039,-26.221561,-13.686445
2,13,71,1421,0.815027,-0.556722,-0.424167,7.287539,-27.784061,-22.936445
2,13,72,1441,0.762293,-0.488851,-0.380710,4.412539,-32.971561,-27.498945
2,13,73,1461,0.776942,-0.504965,-0.495456,0.912539,-46.284061,-30.311445
2,13,74,1481,0.815027,-0.545980,-0.614597,0.912539,-42.846561,-36.873947
2,13,75,1501,0.818934,-0.530355,-0.641452,13.662539,-31.971561,-42.623947
2,13,76,1521,0.816981,-0.504476,-0.634616,34.787540,-21.721561,-43.436447
2,13,77,1541,0.815516,-0.501547,-0.616550,43.850040,-20.596561,-44.311447
2,13,78,1561,0.824305,-0.505453,-0.650729,46.662540,-20.096561,-47.248947
2,13,79,1581,0.837488,-0.512289,-0.684909,38.350040,-18.409061,-56.061447
2,13,80,1601,0.837000,-0.506429,-0.688815,31.787539,-13.909062,-64.998947
2,13,81,1621,0.827235,-0.459554,-0.664401,30.725039,-10.096562,-73.123947
2,13,82,1641,0.818934,-0.412679,-0.657565,35.100040,-4.221562,-76.748947
2,13,83,1661,0.809168,-0.362875,-0.646823,40.912540,-1.534062,-78.498947
2,13,84,1681,0.813074,-0.345297,-0.643893,48.100040,-1.284062,-78.811447
2,13,85,1701,0.816492,-0.328207,-0.629733,52.287540,2.715938,-79.373947
2,13,86,1721,0.812098,-0.298422,-0.591647,56.100040,6.278438,-82.123947
2,13,87,1741,0.803797,-0.272543,-0.586276,55.287540,8.715938,-87.248947
2,13,88,1761,0.822352,-0.240316,-0.575534,52.475040,8.653438,-88.748947
2,13,89,1781,0.821863,-0.202230,-0.571140,48.162540,6.590938,-91.248947
2,13,90,1801,0.837488,-0.198812,-0.569186,40.662540,6.778438,-96.311447
2,13,91,1821,0.827235,-0.127523,-0.528171,31.037539,4.965938,-100.373947
2,13,92,1841,0.810145,-0.031820,-0.499362,26.725039,2.215938,-97.498947
2,13,93,1861,0.816004,0.004313,-0.511569,26.037539,1.778438,-92.811447
2,13,94,1881,0.835047,0.021403,-0.542819,20.725039,2.778438,-90.873947
2,13,95,1901,0.844324,0.056071,-0.553073,14.600039,2.903438,-86.311447
2,13,96,1921,0.861902,0.092692,-0.567233,15.850039,3.590938,-78.061447
2,13,97,1941,0.896570,0.102946,-0.627292,18.225039,5.090938,-69.061447
2,13,98,1961,0.920985,0.130289,-0.672214,16.475039,11.840938,-59.498947
2,13,99,1981,0.941004,0.115153,-0.650729,22.225039,25.653439,-48.936447
2,14,0,0,0.982508,-0.089437,-0.325046,11.225039,-4.159062,1.188555
2,14,1,21,1.008387,-0.148031,-0.348483,17.037539,-3.721562,-1.998945
2,14,2,41,1.030360,-0.190511,-0.383151,20.912539,-3.721562,-5.811445
2,14,3,61,1.036219,-0.218832,-0.411960,21.225039,-2.909062,-12.873945
2,14,4,81,1.041102,-0.235433,-0.430026,25.537539,-0.096562,-20.061445
2,14,5,101,1.037684,-0.254476,-0.442722,31.162539,4.153438,-29.436445
2,14,6,121,1.033777,-0.253500,-0.472018,33.600040,4.153438,-37.748947
2,14,7,141,1.025965,-0.228109,-0.490573,33.287540,2.215938,-49.248947
2,14,8,161,1.003992,-0.156820,-0.524753,33.912540,2.153438,-59.248947
2,14,9,181,0.981043,-0.091390,-0.530124,38.537540,7.215938,-65.936447
2,14,10,201,0.951258,-0.041586,-0.518405,51.350040,12.028438,-69.311447
2,14,11,221,0.922938,0.023844,-0.501804,73.037537,18.715939,-72.061447
2,14,12,241,0.883387,0.133219,-0.498874,108.975037,25.715939,-69.186447
2,14,13,261,0.898035,0.199137,-0.559909,158.287537,39.090939,-59.936447
2,14,14,281,0.921961,0.257731,-0.618015,173.537537,54.903439,-55.373947
2,14,15,301,0.920985,0.309000,-0.575046,146.787537,61.653439,-56.623947
2,14,16,321,0.905848,0.338785,-0.510104,103.975037,50.965939,-59.811447
2,14,17,341,0.902918,0.321696,-0.468601,81.600037,44.215939,-60.873947
2,14,18,361,0.920008,0.346110,-0.487155,93.537537,54.153439,-61.436447
2,14,19,381,0.939539,0.386637,-0.539401,95.662537,59.028439,-58.811447
2,14,20,401,0.953211,0.413004,-0.575046,64.037537,54.590939,-53.123947
2,14,21,421,0.956629,0.410074,-0.566745,19.537539,52.778439,-50.748947
2,14,22,441,0.927820,0.425699,-0.518405,-10.774961,56.528439,-47.748947
2,14,23,461,0.903895,0.458414,-0.430026,-29.587461,63.340939,-43.811447
2,14,24,481,0.869715,0.514078,-0.349948,-43.587460,65.153435,-36.873947
2,14,25,501,0.855555,0.537028,-0.266452,-60.962460,64.278435,-26.248945
2,14,26,521,0.842860,0.544352,-0.185397,-80.462463,61.403439,-15.623945
2,14,27,541,0.837488,0.539957,-0.115573,-95.337463,59.340939,-3.873945
2,14,28,561,0.845789,0.508219,-0.045261,-109.337463,55.215939,5.876055
2,14,29,581,0.839930,0.480875,0.038235,-122.399963,51.528439,10.688555
2,14,30,601,0.831141,0.475504,0.089505,-133.774963,39.840939,17.751055
2,14,31,621,0.845301,0.454020,0.104153,-142.962463,26.403439,25.751055
2,14,32,641,0.844813,0.435465,0.100735,-150.399963,19.840939,30.438555
2,14,33,661,0.853113,0.420328,0.116360,-156.337463,14.528438,35.376053
2,14,34,681,0.862879,0.403239,0.127103,-159.962463,7.340938,44.751053
2,14,35,701,0.868250,0.366129,0.114896,-164.087463,0.528438,55.563553
2,14,36,721,0.866785,0.316813,0.123196,-172.462463,-3.909062,63.188553
2,14,37,741,0.851649,0.281168,0.161771,-165.274963,-3.971562,75.376053
2,14,38,761,0.852137,0.229410,0.179349,-148.587463,-5.971562,88.438553
2,14,39,781,0.864832,0.149821,0.150052,-138.274963,-11.346562,99.813553
2,14,40,801,0.876063,0.063883,0.147610,-135.149963,-15.221562,107.626053
2,14,41,821,0.879481,-0.024984,0.154935,-132.149963,-21.409061,109.251053
2,14,42,841,0.884363,-0.087484,0.144681,-134.337463,-31.221561,105.001053
2,14,43,861,0.897059,-0.103109,0.128567,-132.087463,-38.159061,104.938553
2,14,44,881,0.903406,-0.144613,0.090970,-122.462463,-44.721561,105.876053
2,14,45,901,0.936121,-0.202230,0.052884,-109.837463,-42.346561,99.126053
2,14,46,921,0.862391,-0.290609,-0.008640,-81.399963,-34.534061,89.563553
2,14,47,941,0.830652,-0.374593,0.010892,-108.524963,-39.846561,84.563553
2,14,48,961,0.888758,-0.390218,-0.025241,-122.337463,-48.596561,77.001053
2,14,49,981,0.867762,-0.423422,-0.044772,-92.149963,-47.346561,81.188553
2,14,50,1001,0.904383,-0.521078,-0.106296,-63.649960,-42.096561,86.688553
2,14,51,1021,0.917567,-0.554281,-0.104831,-60.212460,-36.909061,78.126053
2,14,52,1041,0.883387,-0.512777,-0.114597,-74.587463,-42.096561,62.938553
2,14,53,1061,0.870692,-0.519613,-0.135593,-79.524963,-48.284061,52.688553
2,14,54,1081,0.892176,-0.549398,-0.148776,-69.399963,-47.721561,48.126053
2,14,55,1101,0.893641,-0.587972,-0.159518,-51.149960,-45.284061,43.126053
2,14,56,1121,0.862391,-0.620687,-0.181491,-40.274960,-45.409061,33.126053
2,14,57,1141,0.856043,-0.637777,-0.216159,-33.587460,-63.721561,23.626055
2,14,58,1161,0.867762,-0.668539,-0.272800,-23.087461,-74.659065,18.501055
2,14,59,1181,0.890711,-0.702230,-0.330905,-6.399961,-70.846565,13.001055
2,14,60,1201,0.887293,-0.755453,-0.374362,8.725039,-61.471561,5.626055
2,14,61,1221,0.919031,-0.796957,-0.444186,8.225039,-59.784061,-9.311445
2,14,62,1241,0.914637,-0.794515,-0.477390,2.412539,-66.534065,-28.623945
2,14,63,1261,0.925867,-0.767172,-0.523288,-9.899961,-69.721565,-47.373947
2,14,64,1281,0.916590,-0.701254,-0.574069,-1.399961,-67.659065,-62.998947
2,14,65,1301,0.911707,-0.629965,-0.603366,23.787539,-65.596565,-68.811447
2,14,66,1321,0.885340,-0.550863,-0.631686,40.100040,-57.721561,-70.811447
2,14,67,1341,0.893641,-0.513754,-0.666843,56.412540,-43.471561,-72.873947
2,14,68,1361,0.880945,-0.453695,-0.650241,64.037537,-31.909061,-74.686447
2,14,69,1381,0.868250,-0.406332,-0.643405,64.662537,-24.721561,-74.436447
2,14,70,1401,0.888758,-0.398031,-0.630710,58.975040,-22.409061,-78.811447
2,14,71,1421,0.865809,-0.319906,-0.597018,48.287540,-22.034061,-84.373947
2,14,72,1441,0.842860,-0.268636,-0.559909,46.975040,-18.971561,-86.373947
2,14,73,1461,0.847254,-0.253500,-0.553561,54.787540,-15.971562,-83.561447
2,14,74,1481,0.852625,-0.233968,-0.566745,65.662537,-11.284062,-80.623947
2,14,75,1501,0.856043,-0.206136,-0.553073,74.475037,-3.409062,-77.248947
2,14,76,1521,0.845301,-0.155355,-0.529636,82.850037,-1.721562,-75.436447
2,14,77,1541,0.840906,-0.100668,-0.522311,80.475037,-1.471562,-71.561447
2,14,78,1561,0.859461,-0.086996,-0.498386,77.037537,0.965938,-67.623947
2,14,79,1581,0.869227,-0.113363,-0.498874,74.100037,1.278438,-67.123947
2,14,80,1601,0.873621,-0.124105,-0.458835,70.225037,4.028438,-66.561447
2,14,81,1621,0.874110,-0.122152,-0.451999,69.662537,2.090938,-69.436447
2,14,82,1641,0.882410,-0.096273,-0.464206,64.725037,-2.534062,-73.686447
2,14,83,1661,0.897547,-0.028890,-0.488620,55.725040,-9.159062,-72.186447
2,14,84,1681,0.912684,0.001871,-0.521335,39.537540,-11.096562,-73.061447
2,14,85,1701,0.908289,0.044840,-0.528659,22.975039,-11.159062,-71.061447
2,14,86,1721,0.909266,0.079508,-0.528171,21.475039,-7.846562,-63.248947
2,14,87,1741,0.928797,0.072184,-0.541354,27.475039,-1.471562,-54.561447
2,14,88,1761,0.939539,0.046793,-0.536472,32.537540,6.215938,-50.498947
2,14,89,1781,0.928797,0.061930,-0.495944,30.350039,9.778438,-47.311447
2,14,90,1801,0.915125,0.099039,-0.461276,26.412539,10.278438,-40.748947
2,14,91,1821,0.926356,0.106364,-0.447604,24.912539,13.153438,-16.686445
2,14,92,1841,0.944910,0.074625,-0.443210,23.912539,13.903438,-25.248945
2,14,93,1861,0.951746,0.029703,-0.418796,23.787539,13.903438,-22.623945
2,14,94,1881,0.943934,-0.005941,-0.385593,28.975039,15.653438,-22.623945
2,14,95,1901,0.929774,-0.001058,-0.373874,31.162539,14.278438,-23.561445
2,14,96,1921,0.919031,0.047770,-0.383151,22.100039,9.153438,-25.873945
2,14,97,1941,0.925867,0.087809,-0.389499,9.975039,5.965938,-27.811445
2,14,98,1961,0.939539,0.084879,-0.409030,0.287539,3.965938,-31.998945
2,14,99,1981,0.929285,0.141032,-0.403171,-1.962461,2.903438,-32.561447
2,15,0,0,1.002039,-0.126547,-0.355319,7.975039,2.840938,6.438555
2,15,1,21,1.010340,-0.170980,-0.357272,14.787539,6.090938,5.438555
2,15,2,41,1.007899,-0.197836,-0.343601,21.850039,8.903438,2.813555
2,15,3,61,1.013270,-0.226644,-0.333347,28.287539,11.028438,0.563555
2,15,4,81,1.005945,-0.250082,-0.312839,34.787540,11.090938,-4.748945
2,15,5,101,1.003504,-0.262289,-0.305026,39.287540,8.028438,-11.436445
2,15,6,121,0.998133,-0.272543,-0.285983,43.975040,5.340938,-17.686445
2,15,7,141,0.989344,-0.258871,-0.285007,41.412540,-0.721562,-27.623945
2,15,8,161,0.968836,-0.208578,-0.285007,32.600040,-7.596562,-38.873947
2,15,9,181,0.944422,-0.129965,-0.292331,29.662539,-14.909062,-47.373947
2,15,10,201,0.941981,-0.087484,-0.328464,47.475040,-15.971562,-45.311447
2,15,11,221,0.961024,-0.088461,-0.403659,68.350037,-10.971562,-43.498947
2,15,12,241,0.972742,-0.076254,-0.468601,76.850037,-4.471562,-47.561447
2,15,13,261,0.976649,-0.023031,-0.492038,71.100037,-3.284062,-52.748947
2,15,14,281,0.968348,0.032633,-0.503268,62.100040,-3.534062,-54.123947
2,15,15,301,0.975184,0.044840,-0.515964,55.475040,-1.534062,-54.623947
2,15,16,321,0.962977,0.039957,-0.514011,56.600040,1.715938,-53.936447
2,15,17,341,0.962000,0.054117,-0.538425,58.975040,4.840938,-57.061447
2,15,18,361,0.956629,0.099039,-0.580417,56.537540,6.715938,-60.373947
2,15,19,381,0.968348,0.145914,-0.629245,50.350040,11.215938,-61.623947
2,15,20,401,0.969813,0.213297,-0.643405,41.350040,19.403439,-61.436447
2,15,21,421,0.943445,0.284098,-0.620456,32.287540,26.028439,-56.623947
2,15,22,441,0.915613,0.338297,-0.559421,31.100039,34.403439,-50.311447
2,15,23,461,0.897547,0.391032,-0.537936,36.600040,42.778439,-38.311447
2,15,24,481,0.924891,0.397379,-0.541843,32.412540,51.090939,-29.498945
2,15,25,501,0.941004,0.395426,-0.505222,16.787539,58.965939,-20.811445
2,15,26,521,0.948328,0.347086,-0.439792,0.850039,61.653439,-12.998945
2,15,27,541,0.951746,0.280680,-0.385104,-15.212461,60.528439,-9.373945
2,15,28,561,0.938563,0.247965,-0.326022,-26.899961,62.028439,-9.936445
2,15,29,581,0.929285,0.247477,-0.266940,-30.212461,63.653439,-7.873945
2,15,30,601,0.929774,0.245035,-0.209323,-29.837461,63.340939,-3.623945
2,15,31,621,0.945399,0.225504,-0.194186,-31.962461,61.028439,-0.998945
2,15,32,641,0.953211,0.216227,-0.172214,-40.587460,60.090939,-1.936445
2,15,33,661,0.939539,0.238199,-0.119479,-48.462460,58.278439,-1.498945
2,15,34,681,0.933680,0.257242,-0.074069,-55.274960,56.090939,-2.436445
2,15,35,701,0.903895,0.312418,-0.022800,-65.712463,50.028439,-3.186445
2,15,36,721,0.894617,0.369059,0.008939,-76.524963,39.153439,1.313555
2,15,37,741,0.901453,0.400797,0.012357,-94.087463,28.715939,8.438555
2,15,38,761,0.897059,0.403239,0.022122,-116.774963,19.903439,14.188555
2,15,39,781,0.894617,0.388102,0.030911,-134.149963,9.465938,22.313555
2,15,40,801,0.894617,0.367106,0.015286,-139.962463,3.028438,31.938555
2,15,41,821,0.906336,0.329996,-0.001315,-140.399963,1.965938,44.313553
2,15,42,841,0.925379,0.280680,-0.001315,-135.024963,4.403438,59.001053
2,15,43,861,0.935145,0.197672,0.015774,-126.337463,9.465938,73.001053
2,15,44,881,0.935633,0.099528,0.037259,-122.837463,11.465938,78.376053
2,15,45,901,0.935145,0.031656,0.061185,-126.524963,9.528438,75.688553
2,15,46,921,0.933680,-0.007894,0.096341,-131.337463,3.465938,67.563553
2,15,47,941,0.929285,-0.016195,0.123685,-131.837463,-2.471562,60.063553
2,15,48,961,0.923426,-0.000570,0.149075,-130.337463,-12.534062,54.563553
2,15,49,981,0.920496,0.016520,0.140774,-128.149963,-25.346561,51.563553
2,15,50,1001,0.916590,0.031168,0.075833,-132.212463,-37.221561,50.188553
2,15,51,1021,0.903895,0.039957,0.024075,-129.212463,-41.659061,59.063553
2,15,52,1041,0.899500,-0.028890,0.009427,-112.774963,-40.096561,75.126053
2,15,53,1061,0.899988,-0.158773,-0.015964,-81.649963,-32.909061,90.501053
2,15,54,1081,0.920496,-0.299886,-0.025729,-55.524960,-24.659061,93.376053
2,15,55,1101,0.928309,-0.392172,-0.014499,-62.024960,-25.721561,83.251053
2,15,56,1121,0.939051,-0.418051,-0.017917,-71.649963,-32.346561,69.501053
2,15,57,1141,0.924402,-0.381429,-0.008151,-79.024963,-39.284061,54.126053
2,15,58,1161,0.902430,-0.300375,-0.014987,-86.774963,-52.596561,43.001053
2,15,59,1181,0.891199,-0.262289,-0.061374,-89.149963,-62.346561,40.313553
2,15,60,1201,0.894129,-0.279379,-0.103366,-85.399963,-63.159061,45.001053
2,15,61,1221,0.897059,-0.337484,-0.122897,-88.399963,-54.284061,47.876053
2,15,62,1241,0.882410,-0.395101,-0.224460,-87.712463,-49.159061,41.063553
2,15,63,1261,0.872156,-0.399984,-0.235690,-51.774960,-46.096561,37.376053
2,15,64,1281,0.877527,-0.390707,-0.250827,-43.524960,-56.971561,41.001053
2,15,65,1301,0.870692,-0.404379,-0.358249,-31.462461,-60.034061,46.438553
2,15,66,1321,0.913172,-0.519613,-0.435886,-25.149961,-57.659061,45.688553
2,15,67,1341,0.915613,-0.584554,-0.425632,-13.024961,-47.596561,38.001053
2,15,68,1361,0.885828,-0.568441,-0.381198,-0.087461,-42.096561,36.063553
2,15,69,1381,0.884363,-0.628011,-0.392429,10.725039,-41.721561,38.563553
2,15,70,1401,0.947840,-0.761801,-0.488132,12.350039,-51.221561,26.313555
2,15,71,1421,0.992274,-0.815511,-0.599460,9.912539,-55.534061,3.563555
2,15,72,1441,0.982508,-0.769613,-0.615573,16.350039,-49.346561,-13.061445
2,15,73,1461,0.974207,-0.728597,-0.625339,24.912539,-45.721561,-24.623945
2,15,74,1481,0.984949,-0.721273,-0.621921,34.475040,-34.096561,-37.248947
2,15,75,1501,0.954188,-0.647543,-0.629245,39.662540,-31.784061,-47.686447
2,15,76,1521,0.939539,-0.601156,-0.643893,45.787540,-26.784061,-52.748947
2,15,77,1541,0.919520,-0.563558,-0.630222,51.975040,-21.221561,-55.936447
2,15,78,1561,0.899012,-0.533285,-0.587253,58.537540,-12.409062,-59.561447
2,15,79,1581,0.875574,-0.482015,-0.547702,63.662540,-10.284062,-64.748947
2,15,80,1601,0.861902,-0.444418,-0.527194,63.725040,-9.659062,-69.061447
2,15,81,1621,0.864832,-0.432211,-0.513034,59.225040,-9.284062,-75.748947
2,15,82,1641,0.857996,-0.415121,-0.499851,57.850040,-7.846562,-82.436447
2,15,83,1661,0.841395,-0.365316,-0.480808,57.850040,-10.034062,-88.498947
2,15,84,1681,0.849695,-0.342855,-0.486667,62.162540,-10.034062,-92.248947
2,15,85,1701,0.850184,-0.306234,-0.482761,67.225037,-7.909062,-96.186447
2,15,86,1721,0.838465,-0.253500,-0.482272,72.600037,-6.471562,-97.373947
2,15,87,1741,0.838953,-0.209066,-0.481784,78.350037,-4.471562,-94.498947
2,15,88,1761,0.851649,-0.206625,-0.505222,85.537537,-0.971562,-92.811447
2,15,89,1781,0.868738,-0.195394,-0.548190,87.225037,2.715938,-94.936447
2,15,90,1801,0.876063,-0.160726,-0.564792,77.162537,3.840938,-102.936447
2,15,91,1821,0.865320,-0.066976,-0.553073,58.037540,2.278438,-109.311447
2,15,92,1841,0.884852,0.003336,-0.559421,47.725040,0.340938,-109.936447
2,15,93,1861,0.897547,0.029215,-0.577487,52.975040,7.715938,-104.311447
2,15,94,1881,0.914637,0.042887,-0.604831,68.037537,19.403439,-98.311447
2,15,95,1901,0.910731,0.117594,-0.624362,78.412537,29.465939,-89.436447
2,15,96,1921,0.916102,0.185465,-0.583835,74.662537,34.153439,-77.623947
2,15,97,1941,0.914149,0.231364,-0.505222,65.162537,37.778439,-64.248947
2,15,98,1961,0.919031,0.190836,-0.460788,62.787540,40.715939,-54.873947
2,15,99,1981,0.925379,0.138102,-0.436862,56.162540,39.153439,-53.561447
2,16,0,0,0.963465,0.226481,-0.021823,-14.774961,23.028439,39.751053
2,16,1,21,0.965418,0.168375,0.026517,-2.774961,27.715939,43.376053
2,16,2,41,0.976649,0.114664,0.060208,5.350039,27.965939,43.188553
2,16,3,61,0.991297,0.073160,0.088528,6.912539,24.215939,39.813553
2,16,4,81,0.998621,0.042887,0.120755,0.600039,17.715939,36.001053
2,16,5,101,1.005945,-0.003988,0.150052,-3.712461,8.153438,31.626055
2,16,6,121,1.017176,-0.045980,0.133450,-7.962461,-5.784062,24.938555
2,16,7,141,1.040125,-0.082601,0.055814,-12.212461,-19.284061,12.938555
2,16,8,161,1.060145,-0.067465,-0.021335,-15.212461,-23.409061,-0.248945
2,16,9,181,1.059168,-0.013265,-0.061862,-18.524961,-25.409061,-10.623945
2,16,10,201,1.049891,0.047770,-0.077976,-21.212461,-25.784061,-17.123945
2,16,11,221,1.038172,0.102457,-0.087741,-21.337461,-25.846561,-18.811445
2,16,12,241,1.029383,0.142496,-0.100925,-16.524961,-23.659061,-15.623945
2,16,13,261,1.018641,0.162516,-0.109226,-9.524961,-19.284061,-10.936445
2,16,14,281,1.014735,0.171793,-0.116061,-2.399961,-15.284062,-5.748945
2,16,15,301,1.016199,0.174723,-0.114597,2.725039,-11.284062,-2.811445
2,16,16,321,1.012781,0.184000,-0.113132,3.975039,-10.409062,-0.561445
2,16,17,341,1.021082,0.183024,-0.121921,1.475039,-10.346562,0.063555
2,16,18,361,1.017664,0.185953,-0.121433,-2.899961,-8.846562,0.688555
2,16,19,381,1.013270,0.182535,-0.123874,-5.587461,-9.721562,1.938555
2,16,20,401,1.009363,0.188883,-0.115573,-6.274961,-9.221562,3.188555
2,16,21,421,1.005945,0.186442,-0.111179,-5.587461,-8.784062,6.251055
2,16,22,441,1.010340,0.155680,-0.117526,-2.024961,-7.471562,8.751055
2,16,23,461,1.034266,0.110758,-0.147311,2.037539,-6.034062,11.376055
2,16,24,481,1.061610,0.055094,-0.185886,5.475039,-3.784062,13.501055
2,16,25,501,1.095789,-0.025961,-0.225925,9.350039,0.903438,11.938555
2,16,26,521,1.097254,-0.073324,-0.222507,12.787539,7.840938,5.313555
2,16,27,541,1.093836,-0.095297,-0.218601,21.100039,12.840938,-0.311445
2,16,28,561,1.103113,-0.074789,-0.243503,22.162539,14.028438,-8.936445
2,16,29,581,1.083094,-0.017660,-0.237643,19.600039,15.715938,-15.373945
2,16,30,601,1.067957,0.028239,-0.209811,19.287539,20.903439,-19.186445
2,16,31,621,1.045985,0.070231,-0.180026,25.912539,23.715939,-17.436445
2,16,32,641,1.062098,0.067301,-0.200046,31.287539,22.403439,-16.373945
2,16,33,661,1.055750,0.093668,-0.223972,27.100039,23.340939,-21.561445
2,16,34,681,1.024988,0.163981,-0.209323,22.287539,26.778439,-26.748945
2,16,35,701,1.014246,0.244059,-0.178561,17.475039,32.340939,-30.248945
2,16,36,721,0.963465,0.350992,-0.113132,10.350039,39.215939,-31.061445
2,16,37,741,0.940027,0.441813,-0.063815,-1.712461,34.965939,-24.811445
2,16,38,761,0.940516,0.487711,-0.063815,-19.087461,30.340939,-19.623945
2,16,39,781,0.928797,0.528727,-0.056979,-41.962460,24.340939,-13.123945
2,16,40,801,0.918543,0.556559,-0.042331,-57.899960,20.590939,-3.623945
2,16,41,821,0.908289,0.546305,-0.031589,-68.649963,16.590939,7.938555
2,16,42,841,0.927820,0.510172,-0.013522,-79.712463,18.465939,18.188555
2,16,43,861,0.903406,0.498942,-0.022311,-88.212463,17.653439,26.876055
2,16,44,881,0.913660,0.455973,-0.023288,-105.712463,12.028438,35.813553
2,16,45,901,0.915613,0.407145,-0.002780,-129.899963,6.215938,42.063553
2,16,46,921,0.900965,0.346598,0.017239,-147.337463,3.403438,48.251053
2,16,47,941,0.901942,0.293864,0.031399,-153.774963,1.028438,53.876053
2,16,48,961,0.900965,0.250895,0.063626,-152.524963,1.465938,58.813553
2,16,49,981,0.868250,0.206949,0.124173,-143.837463,4.278438,66.126053
2,16,50,1001,0.848231,0.154703,0.161282,-137.274963,-0.909062,71.438553
2,16,51,1021,0.850184,0.074625,0.158353,-129.024963,-6.909062,78.938553
2,16,52,1041,0.862391,-0.004476,0.170071,-119.712463,-14.596562,86.126053
2,16,53,1061,0.857508,-0.122640,0.158841,-124.837463,-26.971561,91.688553
2,16,54,1081,0.924891,-0.313070,0.115872,-105.587463,-22.596561,94.251053
2,16,55,1101,0.903406,-0.429769,0.162747,-81.649963,-11.034062,77.563553
2,16,56,1121,0.876063,-0.376058,0.272122,-94.024963,-15.596562,57.563553
2,16,57,1141,0.868738,-0.332113,0.292142,-75.399963,-36.159061,60.188553
2,16,58,1161,0.922938,-0.404379,0.203274,-66.087463,-48.284061,67.876053
2,16,59,1181,0.944910,-0.491781,0.102689,-98.774963,-46.909061,60.501053
2,16,60,1201,0.954676,-0.525472,-0.047702,-94.649963,-46.221561,39.876053
2,16,61,1221,0.925379,-0.500570,0.013821,-45.649960,-40.784061,31.001055
2,16,62,1241,0.922449,-0.501058,0.018216,-35.274960,-46.534061,26.876055
2,16,63,1261,0.957606,-0.564535,-0.089694,-21.024961,-57.846561,21.938555
2,16,64,1281,1.009363,-0.626547,-0.212741,-22.649961,-64.471565,9.188555
2,16,65,1301,1.032801,-0.627035,-0.258640,-17.712461,-69.846565,-4.561445
2,16,66,1321,1.010340,-0.574301,-0.269382,-2.462461,-65.659065,-16.686445
2,16,67,1341,1.003504,-0.504965,-0.223483,11.975039,-54.721561,-23.623945
2,16,68,1361,0.941004,-0.435140,-0.250827,30.662539,-54.159061,-17.748945
2,16,69,1381,0.989344,-0.462484,-0.374362,36.912540,-51.909061,-16.998945
2,16,70,1401,1.068934,-0.524496,-0.455417,23.600039,-51.096561,-29.873945
2,16,71,1421,1.067469,-0.441976,-0.471042,20.850039,-54.409061,-43.936447
2,16,72,1441,1.017176,-0.320394,-0.434421,26.537539,-51.409061,-51.811447
2,16,73,1461,0.979090,-0.253988,-0.404147,37.100040,-48.846561,-46.561447
2,16,74,1481,0.991785,-0.276449,-0.465671,44.475040,-47.096561,-41.061447
2,16,75,1501,1.015711,-0.283285,-0.514987,48.537540,-40.409061,-42.248947
2,16,76,1521,1.008875,-0.226644,-0.519870,54.912540,-25.346561,-42.186447
2,16,77,1541,0.985926,-0.177328,-0.465671,61.912540,-14.596562,-34.686447
2,16,78,1561,0.963465,-0.203207,-0.405612,68.225037,-6.596562,-26.686445
2,16,79,1581,0.965418,-0.244711,-0.396335,66.912537,-7.096562,-24.998945
2,16,80,1601,0.977625,-0.273031,-0.423190,63.912540,-8.596562,-29.248945
2,16,81,1621,0.996668,-0.311605,-0.432956,61.475040,-8.971562,-34.498947
2,16,82,1641,0.999110,-0.308187,-0.404636,62.850040,-10.846562,-40.123947
2,16,83,1661,0.979090,-0.274984,-0.380710,61.475040,-13.096562,-44.936447
2,16,84,1681,0.965418,-0.243246,-0.393405,50.975040,-16.659061,-50.061447
2,16,85,1701,0.961512,-0.229574,-0.409030,47.912540,-14.721562,-55.061447
2,16,86,1721,0.963465,-0.231527,-0.425143,52.662540,-10.284062,-57.623947
2,16,87,1741,0.953699,-0.153890,-0.456882,52.850040,-8.596562,-58.498947
2,16,88,1761,0.944910,-0.063070,-0.454440,45.975040,-10.534062,-58.936447
2,16,89,1781,0.918055,0.006754,-0.447604,41.725040,-16.221561,-57.498947
2,16,90,1801,0.910242,0.027750,-0.447604,37.662540,-18.721561,-56.123947
2,16,91,1821,0.923914,0.040934,-0.462253,36.475040,-13.971562,-54.811447
2,16,92,1841,0.944422,0.048258,-0.475925,38.725040,-12.784062,-48.873947
2,16,93,1861,0.948328,0.058512,-0.481296,40.850040,-9.159062,-43.248947
2,16,94,1881,0.943445,0.063883,-0.470065,40.412540,-10.909062,-39.998947
2,16,95,1901,0.935633,0.078043,-0.471530,39.975040,-18.096561,-38.498947
2,16,96,1921,0.927332,0.099039,-0.458347,31.725039,-24.159061,-37.748947
2,16,97,1941,0.921961,0.132731,-0.444675,21.162539,-22.534061,-36.248947
2,16,98,1961,0.942957,0.138102,-0.453464,14.850039,-19.409061,-33.498947
2,16,99,1981,0.955652,0.154215,-0.459811,8.975039,-13.034062,-31.311445
2,17,0,0,1.007410,-0.079672,-0.367038,47.600040,1.965938,-18.373945
2,17,1,21,1.036219,-0.103597,-0.454440,46.912540,-1.096562,-23.186445
2,17,2,41,1.066492,-0.107504,-0.585300,30.662539,-4.159062,-32.561447
2,17,3,61,1.069422,-0.059652,-0.614597,14.537539,2.778438,-45.623947
2,17,4,81,1.027918,0.017008,-0.599460,17.787539,13.715938,-48.811447
2,17,5,101,1.012781,0.083903,-0.594089,34.537540,22.465939,-43.248947
2,17,6,121,1.017176,0.120524,-0.618015,38.475040,28.715939,-39.561447
2,17,7,141,1.008387,0.155192,-0.667819,25.662539,37.278439,-40.936447
2,17,8,161,0.989832,0.198160,-0.660007,4.725039,49.028439,-42.686447
2,17,9,181,0.969813,0.239664,-0.558933,-8.212461,64.590935,-40.061447
2,17,10,201,0.947352,0.264078,-0.421237,-8.899961,76.278435,-33.873947
2,17,11,221,0.942469,0.257731,-0.385593,-11.274961,76.903435,-29.623945
2,17,12,241,0.931238,0.292399,-0.349460,-24.899961,77.840935,-28.811445
2,17,13,261,0.915125,0.319742,-0.277194,-25.149961,85.778435,-23.748945
2,17,14,281,0.899012,0.318766,-0.216159,-26.274961,89.090935,-17.811445
2,17,15,301,0.885340,0.324137,-0.138522,-30.962461,93.778435,-15.061445
2,17,16,321,0.873133,0.344645,-0.018405,-37.212460,98.715935,-13.936445
2,17,17,341,0.856531,0.370035,0.122220,-39.399960,100.903435,-10.686445
2,17,18,361,0.842860,0.396403,0.206204,-42.087460,91.090935,-3.936445
2,17,19,381,0.848231,0.407633,0.265774,-50.837460,80.090935,1.501055
2,17,20,401,0.839930,0.418864,0.325345,-66.587463,67.965935,4.751055
2,17,21,421,0.827723,0.431559,0.358060,-89.524963,47.090939,10.126055
2,17,22,441,0.832117,0.430094,0.371732,-107.837463,29.528439,17.376055
2,17,23,461,0.843836,0.417399,0.386380,-117.712463,15.778438,25.313555
2,17,24,481,0.836024,0.391032,0.388821,-120.837463,6.028438,34.501053
2,17,25,501,0.833582,0.363688,0.382474,-120.337463,-3.721562,46.001053
2,17,26,521,0.840418,0.306071,0.359524,-118.712463,-14.159062,59.876053
2,17,27,541,0.846277,0.228434,0.343899,-122.587463,-23.096561,71.501053
2,17,28,561,0.848719,0.154703,0.341458,-117.212463,-32.096561,86.251053
2,17,29,581,0.862879,0.046793,0.304349,-93.212463,-40.659061,106.563553
2,17,30,601,0.899500,-0.096761,0.254544,-75.337463,-45.034061,111.001053
2,17,31,621,0.912195,-0.232992,0.196927,-67.212463,-44.096561,97.188553
2,17,32,641,0.903406,-0.312093,0.174954,-68.837463,-45.096561,74.938553
2,17,33,661,0.900965,-0.329183,0.166653,-72.024963,-53.471561,56.751053
2,17,34,681,0.921961,-0.327230,0.097806,-71.899963,-62.721561,48.251053
2,17,35,701,0.944910,-0.356527,0.010403,-75.337463,-70.784065,36.251053
2,17,36,721,0.958582,-0.371664,-0.039890,-77.899963,-69.346565,23.063555
2,17,37,741,0.935633,-0.350179,-0.009616,-67.274963,-61.034061,15.001055
2,17,38,761,0.913660,-0.316976,0.034817,-49.587460,-57.846561,10.501055
2,17,39,781,0.905848,-0.286703,-0.009128,-33.024960,-62.909061,15.126055
2,17,40,801,0.916102,-0.293539,-0.138034,-32.087460,-74.971565,20.626055
2,17,41,821,0.953699,-0.361898,-0.228366,-26.399961,-71.096565,22.376055
2,17,42,841,0.982020,-0.461996,-0.256198,-4.087461,-55.596561,19.251055
2,17,43,861,0.997156,-0.512777,-0.252780,25.287539,-39.221561,17.813555
2,17,44,881,1.002527,-0.533285,-0.255710,40.537540,-31.284061,16.688555
2,17,45,901,1.048426,-0.548422,-0.324558,33.162540,-34.971561,6.313555
2,17,46,921,1.078211,-0.542074,-0.407077,14.912539,-49.659061,-11.686445
2,17,47,941,1.084070,-0.536215,-0.483249,6.725039,-50.284061,-26.373945
2,17,48,961,1.054774,-0.471761,-0.417331,17.287539,-32.471561,-35.811447
2,17,49,981,1.019617,-0.385824,-0.367038,34.225040,-24.096561,-36.123947
2,17,50,1001,1.010828,-0.340902,-0.354831,41.912540,-25.221561,-35.498947
2,17,51,1021,1.017176,-0.335531,-0.417331,41.912540,-31.096561,-36.498947
2,17,52,1041,1.024988,-0.319418,-0.435397,43.975040,-25.346561,-38.686447
2,17,53,1061,1.006434,-0.282797,-0.394382,54.475040,-21.784061,-40.061447
2,17,54,1081,0.976649,-0.257406,-0.349460,60.787540,-22.034061,-38.123947
2,17,55,1101,0.973719,-0.244711,-0.342136,64.787537,-23.659061,-35.311447
2,17,56,1121,0.992274,-0.232992,-0.385104,60.975040,-29.159061,-36.811447
2,17,57,1141,0.986902,-0.207601,-0.396823,52.100040,-29.784061,-39.686447
2,17,58,1161,0.978602,-0.185140,-0.398776,46.100040,-31.034061,-43.186447
2,17,59,1181,0.982020,-0.164633,-0.407565,42.600040,-30.284061,-45.561447
2,17,60,1201,0.982996,-0.143636,-0.409518,40.787540,-27.971561,-47.123947
2,17,61,1221,0.963953,-0.122152,-0.423679,43.225040,-22.909061,-46.311447
2,17,62,1241,0.960535,-0.113363,-0.443698,44.225040,-21.784061,-42.936447
2,17,63,1261,0.969813,-0.093344,-0.460788,40.287540,-18.909061,-42.748947
2,17,64,1281,0.961024,-0.048910,-0.452487,33.787540,-15.534062,-43.811447
2,17,65,1301,0.952235,-0.020590,-0.442722,29.850039,-13.471562,-42.061447
2,17,66,1321,0.961024,-0.027426,-0.469577,29.412539,-10.096562,-40.811447
2,17,67,1341,0.969324,-0.035726,-0.488620,29.037539,-5.284062,-38.436447
2,17,68,1361,0.963465,-0.016683,-0.472018,28.225039,-2.909062,-37.498947
2,17,69,1381,0.949305,0.001383,-0.457370,28.725039,-4.284062,-33.936447
2,17,70,1401,0.960047,0.010172,-0.468601,26.850039,-5.784062,-29.436445
2,17,71,1421,0.972742,-0.001547,-0.479343,24.100039,-3.596562,-25.186445
2,17,72,1441,0.976649,-0.003011,-0.469577,21.787539,0.590938,-24.748945
2,17,73,1461,0.961512,0.008707,-0.447604,19.912539,4.903438,-24.686445
2,17,74,1481,0.965418,0.017008,-0.418308,19.850039,9.965938,-24.436445
2,17,75,1501,0.960047,0.045328,-0.394870,17.725039,14.403438,-25.561445
2,17,76,1521,0.951258,0.061930,-0.389987,17.787539,17.403439,-29.436445
2,17,77,1541,0.945399,0.095621,-0.366550,13.912539,18.778439,-31.498945
2,17,78,1561,0.947840,0.132731,-0.354831,9.662539,20.778439,-31.748945
2,17,79,1581,0.943445,0.170817,-0.343112,4.850039,21.903439,-29.186445
2,17,80,1601,0.936610,0.193766,-0.323581,3.100039,25.403439,-21.373945
2,17,81,1621,0.954188,0.185953,-0.305026,4.412539,25.715939,-14.248945
2,17,82,1641,0.967371,0.192789,-0.254245,4.537539,26.465939,-14.123945
2,17,83,1661,0.946863,0.218668,-0.207858,9.537539,23.153439,-11.436445
2,17,84,1681,0.926844,0.232828,-0.182468,9.975039,18.528439,-3.623945
